"ID","acc","accept_status","accuracy","age","average_response_time","avg_rt","background","bidi","block","buttons","canvas_backend","checkbox_status","clock_backend","color_backend","colour","compensation","congruency","coordinates","correct","correct_answer","correct_button_block","correct_new_keyboard_response","count_C","count_I","count_Instruction","count_Practice_start","count_age","count_answer","count_blank","count_blank2","count_blank3","count_blank_4","count_break","count_break2","count_button_block","count_consent_form","count_correct_feedback","count_cross","count_end","count_experiment","count_feedback","count_gender","count_incorrect_feedback","count_information_sheet","count_logger","count_new_keyboard_response","count_practice","count_stroop","count_target","datetime","description","disable_garbage_collection","expected","experiment_path","font_bold","font_family","font_italic","font_size","font_underline","foreground","form_clicks","form_response","form_var","fullscreen","gender","height","keyboard_backend","logfile","mouse_backend","opensesame_codename","opensesame_version","repeat_cycle","response","response_answer","response_button_block","response_new_keyboard_response","response_time","response_time_answer","response_time_button_block","response_time_new_keyboard_response","round_decimals","sampler_backend","sound_buf_size","sound_channels","sound_freq","sound_sample_size","start","subject_nr","subject_parity","time_C","time_I","time_Instruction","time_Practice_start","time_age","time_answer","time_blank","time_blank2","time_blank3","time_blank_4","time_break","time_break2","time_button_block","time_consent_form","time_correct_feedback","time_cross","time_end","time_experiment","time_feedback","time_gender","time_incorrect_feedback","time_information_sheet","time_logger","time_new_keyboard_response","time_practice","time_stroop","time_target","title","total_correct","total_response_time","total_responses","uniform_coordinates","width","word"
"27","100","yes","100","23","9691","9691","#ffffff","no","practice","v;b;n;m","legacy","I have read and understood the information shown above","legacy","legacy","red","0","neutral","uniform","1","1","1","NA","0","0","0","0","0","0","0","0","0","0","0","0","5","0","0","0","0","0","NA","0","0","0","0","NA","0","0","0","12/07/16 15:11:14","The main experiment item","yes","v","W:\Sussex\Consciousness and control\Exp 1 - stroop suggestion and PCE\Methods\Palfi_script","no","mono","no","18","no","black","no","Ok","NA","no","Female","768","legacy","C:/Users/User/Dropbox/Sussex/Consciousness and control/Exp 1 - stroop suggestion and PCE/Methods/Palfi_script/laptop_size/subject-11.csv","legacy","Interactive Ising","3.0.2","0","v","v","space","NA","804","804","1395","NA","2","legacy","1024","2","48000","-16","experiment","11","odd","NA","NA","55418","78170","42898","80253","79680","80217","81060","82051","NA","NA","78171","24483","81297","79715","NA","2766","NA","NA","NA","2766","82501","NA","79568","79678","80252","Stroop CI","4","38766","4","yes","1366","FLOWER"
"31","100","yes","100","23","7871","7871","#ffffff","no","practice","v;b;n;m","legacy","I have read and understood the information shown above","legacy","legacy","green","0","neutral","uniform","1","1","1","NA","0","0","0","0","0","1","1","1","1","1","0","0","5","0","1","1","0","0","NA","0","1","0","1","NA","0","1","1","12/07/16 15:11:14","The main experiment item","yes","n","W:\Sussex\Consciousness and control\Exp 1 - stroop suggestion and PCE\Methods\Palfi_script","no","mono","no","18","no","black","no","Ok","NA","no","Female","768","legacy","C:/Users/User/Dropbox/Sussex/Consciousness and control/Exp 1 - stroop suggestion and PCE/Methods/Palfi_script/laptop_size/subject-11.csv","legacy","Interactive Ising","3.0.2","0","n","n","space","NA","591","591","1395","NA","2","legacy","1024","2","48000","-16","experiment","11","odd","NA","NA","55418","78170","42898","83461","82887","83426","84055","85045","NA","NA","78171","24483","84293","82923","NA","2766","NA","NA","NA","2766","85495","NA","79568","82885","83461","Stroop CI","5","39357","5","yes","1366","LOT"
"5","100","yes","100","23","6628","6628","#ffffff","no","practice","v;b;n;m","legacy","I have read and understood the information shown above","legacy","legacy","blue","0","inc","uniform","1","1","1","NA","0","0","0","0","0","2","2","2","2","2","0","0","5","0","2","2","0","0","NA","0","2","0","2","NA","0","2","2","12/07/16 15:11:14","The main experiment item","yes","b","W:\Sussex\Consciousness and control\Exp 1 - stroop suggestion and PCE\Methods\Palfi_script","no","mono","no","18","no","black","no","Ok","NA","no","Female","768","legacy","C:/Users/User/Dropbox/Sussex/Consciousness and control/Exp 1 - stroop suggestion and PCE/Methods/Palfi_script/laptop_size/subject-11.csv","legacy","Interactive Ising","3.0.2","0","b","b","space","NA","412","412","1395","NA","2","legacy","1024","2","48000","-16","experiment","11","odd","NA","NA","55418","78170","42898","86220","85648","86185","86635","87623","NA","NA","78171","24483","86871","85683","NA","2766","NA","NA","NA","2766","88073","NA","79568","85645","86220","Stroop CI","6","39769","6","yes","1366","GREEN"
"3","100","yes","100","23","5814","5814","#ffffff","no","practice","v;b;n;m","legacy","I have read and understood the information shown above","legacy","legacy","red","0","inc","uniform","1","1","1","NA","0","0","0","0","0","3","3","3","3","3","0","0","5","0","3","3","0","0","NA","0","3","0","3","NA","0","3","3","12/07/16 15:11:14","The main experiment item","yes","v","W:\Sussex\Consciousness and control\Exp 1 - stroop suggestion and PCE\Methods\Palfi_script","no","mono","no","18","no","black","no","Ok","NA","no","Female","768","legacy","C:/Users/User/Dropbox/Sussex/Consciousness and control/Exp 1 - stroop suggestion and PCE/Methods/Palfi_script/laptop_size/subject-11.csv","legacy","Interactive Ising","3.0.2","0","v","v","space","NA","933","933","1395","NA","2","legacy","1024","2","48000","-16","experiment","11","odd","NA","NA","55418","78170","42898","88772","88200","88737","89708","90700","NA","NA","78171","24483","89947","88235","NA","2766","NA","NA","NA","2766","91150","NA","79568","88197","88772","Stroop CI","7","40702","7","yes","1366","YELLOW"
"16","100","yes","100","23","5250","5250","#ffffff","no","practice","v;b;n;m","legacy","I have read and understood the information shown above","legacy","legacy","blue","0","con","uniform","1","1","1","NA","0","0","0","0","0","4","4","4","4","4","0","0","5","0","4","4","0","0","NA","0","4","0","4","NA","0","4","4","12/07/16 15:11:14","The main experiment item","yes","b","W:\Sussex\Consciousness and control\Exp 1 - stroop suggestion and PCE\Methods\Palfi_script","no","mono","no","18","no","black","no","Ok","NA","no","Female","768","legacy","C:/Users/User/Dropbox/Sussex/Consciousness and control/Exp 1 - stroop suggestion and PCE/Methods/Palfi_script/laptop_size/subject-11.csv","legacy","Interactive Ising","3.0.2","0","b","b","space","NA","1301","1301","1395","NA","2","legacy","1024","2","48000","-16","experiment","11","odd","NA","NA","55418","78170","42898","91864","91292","91829","93170","94161","NA","NA","78171","24483","93407","91327","NA","2766","NA","NA","NA","2766","94611","NA","79568","91290","91864","Stroop CI","8","42003","8","yes","1366","BLUE"
"30","100","yes","100","23","4729","4729","#ffffff","no","practice","v;b;n;m","legacy","I have read and understood the information shown above","legacy","legacy","blue","0","neutral","uniform","1","1","1","NA","0","0","0","0","0","5","5","5","5","5","0","0","5","0","5","5","0","0","NA","0","5","0","5","NA","0","5","5","12/07/16 15:11:14","The main experiment item","yes","b","W:\Sussex\Consciousness and control\Exp 1 - stroop suggestion and PCE\Methods\Palfi_script","no","mono","no","18","no","black","no","Ok","NA","no","Female","768","legacy","C:/Users/User/Dropbox/Sussex/Consciousness and control/Exp 1 - stroop suggestion and PCE/Methods/Palfi_script/laptop_size/subject-11.csv","legacy","Interactive Ising","3.0.2","0","b","b","space","NA","561","561","1395","NA","2","legacy","1024","2","48000","-16","experiment","11","odd","NA","NA","55418","78170","42898","95328","94756","95293","95892","96882","NA","NA","78171","24483","96129","94791","NA","2766","NA","NA","NA","2766","97332","NA","79568","94754","95328","Stroop CI","9","42564","9","yes","1366","FLOWER"
"17","100","yes","100","23","4315","4315","#ffffff","no","practice","v;b;n;m","legacy","I have read and understood the information shown above","legacy","legacy","blue","0","con","uniform","1","1","1","NA","0","0","0","0","0","6","6","6","6","6","0","0","5","0","6","6","0","0","NA","0","6","0","6","NA","0","6","6","12/07/16 15:11:14","The main experiment item","yes","b","W:\Sussex\Consciousness and control\Exp 1 - stroop suggestion and PCE\Methods\Palfi_script","no","mono","no","18","no","black","no","Ok","NA","no","Female","768","legacy","C:/Users/User/Dropbox/Sussex/Consciousness and control/Exp 1 - stroop suggestion and PCE/Methods/Palfi_script/laptop_size/subject-11.csv","legacy","Interactive Ising","3.0.2","0","b","b","space","NA","589","589","1395","NA","2","legacy","1024","2","48000","-16","experiment","11","odd","NA","NA","55418","78170","42898","98078","97506","98043","98670","99659","NA","NA","78171","24483","98907","97541","NA","2766","NA","NA","NA","2766","100109","NA","79568","97504","98078","Stroop CI","10","43153","10","yes","1366","BLUE"
"21","100","yes","100","23","3979","3979","#ffffff","no","practice","v;b;n;m","legacy","I have read and understood the information shown above","legacy","legacy","green","0","con","uniform","1","1","1","NA","0","0","0","0","0","7","7","7","7","7","0","0","5","0","7","7","0","0","NA","0","7","0","7","NA","0","7","7","12/07/16 15:11:14","The main experiment item","yes","n","W:\Sussex\Consciousness and control\Exp 1 - stroop suggestion and PCE\Methods\Palfi_script","no","mono","no","18","no","black","no","Ok","NA","no","Female","768","legacy","C:/Users/User/Dropbox/Sussex/Consciousness and control/Exp 1 - stroop suggestion and PCE/Methods/Palfi_script/laptop_size/subject-11.csv","legacy","Interactive Ising","3.0.2","0","n","n","space","NA","618","618","1395","NA","2","legacy","1024","2","48000","-16","experiment","11","odd","NA","NA","55418","78170","42898","100898","100326","100863","101519","102507","NA","NA","78171","24483","101755","100361","NA","2766","NA","NA","NA","2766","102957","NA","79568","100323","100898","Stroop CI","11","43771","11","yes","1366","GREEN"
"15","100","yes","100","23","3697","3697","#ffffff","no","practice","v;b;n;m","legacy","I have read and understood the information shown above","legacy","legacy","red","0","con","uniform","1","1","1","NA","0","0","0","0","0","8","8","8","8","8","0","0","5","0","8","8","0","0","NA","0","8","0","8","NA","0","8","8","12/07/16 15:11:14","The main experiment item","yes","v","W:\Sussex\Consciousness and control\Exp 1 - stroop suggestion and PCE\Methods\Palfi_script","no","mono","no","18","no","black","no","Ok","NA","no","Female","768","legacy","C:/Users/User/Dropbox/Sussex/Consciousness and control/Exp 1 - stroop suggestion and PCE/Methods/Palfi_script/laptop_size/subject-11.csv","legacy","Interactive Ising","3.0.2","0","v","v","space","NA","597","597","1395","NA","2","legacy","1024","2","48000","-16","experiment","11","odd","NA","NA","55418","78170","42898","103683","103111","103648","104283","105273","NA","NA","78171","24483","104519","103146","NA","2766","NA","NA","NA","2766","105723","NA","79568","103108","103683","Stroop CI","12","44368","12","yes","1366","RED"
"29","100","yes","100","23","3454","3454","#ffffff","no","practice","v;b;n;m","legacy","I have read and understood the information shown above","legacy","legacy","blue","0","neutral","uniform","1","1","1","NA","0","0","0","0","0","9","9","9","9","9","0","0","5","0","9","9","0","0","NA","0","9","0","9","NA","0","9","9","12/07/16 15:11:14","The main experiment item","yes","b","W:\Sussex\Consciousness and control\Exp 1 - stroop suggestion and PCE\Methods\Palfi_script","no","mono","no","18","no","black","no","Ok","NA","no","Female","768","legacy","C:/Users/User/Dropbox/Sussex/Consciousness and control/Exp 1 - stroop suggestion and PCE/Methods/Palfi_script/laptop_size/subject-11.csv","legacy","Interactive Ising","3.0.2","0","b","b","space","NA","534","534","1395","NA","2","legacy","1024","2","48000","-16","experiment","11","odd","NA","NA","55418","78170","42898","106438","105865","106403","106974","107963","NA","NA","78171","24483","107211","105900","NA","2766","NA","NA","NA","2766","108413","NA","79568","105863","106438","Stroop CI","13","44902","13","yes","1366","KNIFE"
"1","100","yes","100","23","3252","3252","#ffffff","no","practice","v;b;n;m","legacy","I have read and understood the information shown above","legacy","legacy","red","0","inc","uniform","1","1","1","NA","0","0","0","0","0","10","10","10","10","10","0","0","5","0","10","10","0","0","NA","0","10","0","10","NA","0","10","10","12/07/16 15:11:14","The main experiment item","yes","v","W:\Sussex\Consciousness and control\Exp 1 - stroop suggestion and PCE\Methods\Palfi_script","no","mono","no","18","no","black","no","Ok","NA","no","Female","768","legacy","C:/Users/User/Dropbox/Sussex/Consciousness and control/Exp 1 - stroop suggestion and PCE/Methods/Palfi_script/laptop_size/subject-11.csv","legacy","Interactive Ising","3.0.2","0","v","v","space","NA","638","638","1395","NA","2","legacy","1024","2","48000","-16","experiment","11","odd","NA","NA","55418","78170","42898","109121","108547","109086","109762","110752","NA","NA","78171","24483","110000","108582","NA","2766","NA","NA","NA","2766","111202","NA","79568","108544","109121","Stroop CI","14","45540","14","yes","1366","BLUE"
"22","100","yes","100","23","3080","3080","#ffffff","no","practice","v;b;n;m","legacy","I have read and understood the information shown above","legacy","legacy","#ffef36","0","con","uniform","1","1","1","NA","0","0","0","0","0","11","11","11","11","11","0","0","5","0","11","11","0","0","NA","0","11","0","11","NA","0","11","11","12/07/16 15:11:14","The main experiment item","yes","m","W:\Sussex\Consciousness and control\Exp 1 - stroop suggestion and PCE\Methods\Palfi_script","no","mono","no","18","no","black","no","Ok","NA","no","Female","768","legacy","C:/Users/User/Dropbox/Sussex/Consciousness and control/Exp 1 - stroop suggestion and PCE/Methods/Palfi_script/laptop_size/subject-11.csv","legacy","Interactive Ising","3.0.2","0","m","m","space","NA","664","664","1395","NA","2","legacy","1024","2","48000","-16","experiment","11","odd","NA","NA","55418","78170","42898","111909","111337","111874","112576","113565","NA","NA","78171","24483","112813","111372","NA","2766","NA","NA","NA","2766","114015","NA","79568","111335","111909","Stroop CI","15","46204","15","yes","1366","YELLOW"
"26","100","yes","100","23","2924","2924","#ffffff","no","practice","v;b;n;m","legacy","I have read and understood the information shown above","legacy","legacy","red","0","neutral","uniform","1","1","1","NA","0","0","0","0","0","12","12","12","12","12","0","0","5","0","12","12","0","0","NA","0","12","0","12","NA","0","12","12","12/07/16 15:11:14","The main experiment item","yes","v","W:\Sussex\Consciousness and control\Exp 1 - stroop suggestion and PCE\Methods\Palfi_script","no","mono","no","18","no","black","no","Ok","NA","no","Female","768","legacy","C:/Users/User/Dropbox/Sussex/Consciousness and control/Exp 1 - stroop suggestion and PCE/Methods/Palfi_script/laptop_size/subject-11.csv","legacy","Interactive Ising","3.0.2","0","v","v","space","NA","584","584","1395","NA","2","legacy","1024","2","48000","-16","experiment","11","odd","NA","NA","55418","78170","42898","114723","114151","114688","115310","116298","NA","NA","78171","24483","115546","114186","NA","2766","NA","NA","NA","2766","116748","NA","79568","114149","114723","Stroop CI","16","46788","16","yes","1366","KNIFE"
"2","100","yes","100","23","2776","2776","#ffffff","no","practice","v;b;n;m","legacy","I have read and understood the information shown above","legacy","legacy","red","0","inc","uniform","1","1","1","NA","0","0","0","0","0","13","13","13","13","13","0","0","5","0","13","13","0","0","NA","0","13","0","13","NA","0","13","13","12/07/16 15:11:14","The main experiment item","yes","v","W:\Sussex\Consciousness and control\Exp 1 - stroop suggestion and PCE\Methods\Palfi_script","no","mono","no","18","no","black","no","Ok","NA","no","Female","768","legacy","C:/Users/User/Dropbox/Sussex/Consciousness and control/Exp 1 - stroop suggestion and PCE/Methods/Palfi_script/laptop_size/subject-11.csv","legacy","Interactive Ising","3.0.2","0","v","v","space","NA","414","414","1395","NA","2","legacy","1024","2","48000","-16","experiment","11","odd","NA","NA","55418","78170","42898","117463","116890","117428","117880","118868","NA","NA","78171","24483","118116","116926","NA","2766","NA","NA","NA","2766","119318","NA","79568","116887","117463","Stroop CI","17","47202","17","yes","1366","GREEN"
"10","100","yes","100","23","2665","2665","#ffffff","no","practice","v;b;n;m","legacy","I have read and understood the information shown above","legacy","legacy","#ffef36","0","inc","uniform","1","1","1","NA","0","0","0","0","0","14","14","14","14","14","0","0","5","0","14","14","0","0","NA","0","14","0","14","NA","0","14","14","12/07/16 15:11:14","The main experiment item","yes","m","W:\Sussex\Consciousness and control\Exp 1 - stroop suggestion and PCE\Methods\Palfi_script","no","mono","no","18","no","black","no","Ok","NA","no","Female","768","legacy","C:/Users/User/Dropbox/Sussex/Consciousness and control/Exp 1 - stroop suggestion and PCE/Methods/Palfi_script/laptop_size/subject-11.csv","legacy","Interactive Ising","3.0.2","0","m","m","space","NA","768","768","1395","NA","2","legacy","1024","2","48000","-16","experiment","11","odd","NA","NA","55418","78170","42898","120050","119478","120015","120823","121813","NA","NA","78171","24483","121060","119513","NA","2766","NA","NA","NA","2766","122263","NA","79568","119475","120050","Stroop CI","18","47970","18","yes","1366","RED"
"11","100","yes","100","23","2569","2569","#ffffff","no","practice","v;b;n;m","legacy","I have read and understood the information shown above","legacy","legacy","#ffef36","0","inc","uniform","1","1","1","NA","0","0","0","0","0","15","15","15","15","15","0","0","5","0","15","15","0","0","NA","0","15","0","15","NA","0","15","15","12/07/16 15:11:14","The main experiment item","yes","m","W:\Sussex\Consciousness and control\Exp 1 - stroop suggestion and PCE\Methods\Palfi_script","no","mono","no","18","no","black","no","Ok","NA","no","Female","768","legacy","C:/Users/User/Dropbox/Sussex/Consciousness and control/Exp 1 - stroop suggestion and PCE/Methods/Palfi_script/laptop_size/subject-11.csv","legacy","Interactive Ising","3.0.2","0","m","m","space","NA","844","844","1395","NA","2","legacy","1024","2","48000","-16","experiment","11","odd","NA","NA","55418","78170","42898","122987","122415","122952","123833","124824","NA","NA","78171","24483","124071","122450","NA","2766","NA","NA","NA","2766","125274","NA","79568","122412","122987","Stroop CI","19","48814","19","yes","1366","BLUE"
"6","95","yes","95","23","2469","2469","#ffffff","no","practice","v;b;n;m","legacy","I have read and understood the information shown above","legacy","legacy","blue","0","inc","uniform","0","0","1","NA","0","0","0","0","0","16","16","16","16","16","0","0","5","0","16","16","0","0","NA","0","16","0","16","NA","0","16","16","12/07/16 15:11:14","The main experiment item","yes","b","W:\Sussex\Consciousness and control\Exp 1 - stroop suggestion and PCE\Methods\Palfi_script","no","mono","no","18","no","black","no","Ok","NA","no","Female","768","legacy","C:/Users/User/Dropbox/Sussex/Consciousness and control/Exp 1 - stroop suggestion and PCE/Methods/Palfi_script/laptop_size/subject-11.csv","legacy","Interactive Ising","3.0.2","0","v","v","space","NA","576","576","1395","NA","2","legacy","1024","2","48000","-16","experiment","11","odd","NA","NA","55418","78170","42898","126020","125448","125985","126599","127587","NA","NA","78171","24483","124071","125483","NA","2766","NA","NA","126835","2766","128037","NA","79568","125446","126020","Stroop CI","19","49390","20","yes","1366","YELLOW"
"33","95.2380952381","yes","95.2380952381","23","2394","2394","#ffffff","no","practice","v;b;n;m","legacy","I have read and understood the information shown above","legacy","legacy","green","0","neutral","uniform","1","1","1","NA","0","0","0","0","0","17","17","17","17","17","0","0","5","0","17","17","0","0","NA","0","17","0","17","NA","0","17","17","12/07/16 15:11:14","The main experiment item","yes","n","W:\Sussex\Consciousness and control\Exp 1 - stroop suggestion and PCE\Methods\Palfi_script","no","mono","no","18","no","black","no","Ok","NA","no","Female","768","legacy","C:/Users/User/Dropbox/Sussex/Consciousness and control/Exp 1 - stroop suggestion and PCE/Methods/Palfi_script/laptop_size/subject-11.csv","legacy","Interactive Ising","3.0.2","0","n","n","space","NA","891","891","1395","NA","2","legacy","1024","2","48000","-16","experiment","11","odd","NA","NA","55418","78170","42898","128781","128209","128746","129675","130663","NA","NA","78171","24483","129911","128244","NA","2766","NA","NA","126835","2766","131113","NA","79568","128207","128781","Stroop CI","20","50281","21","yes","1366","FLOWER"
"19","95.4545454545","yes","95.4545454545","23","2311","2311","#ffffff","no","practice","v;b;n;m","legacy","I have read and understood the information shown above","legacy","legacy","green","0","con","uniform","1","1","1","NA","0","0","0","0","0","18","18","18","18","18","0","0","5","0","18","18","0","0","NA","0","18","0","18","NA","0","18","18","12/07/16 15:11:14","The main experiment item","yes","n","W:\Sussex\Consciousness and control\Exp 1 - stroop suggestion and PCE\Methods\Palfi_script","no","mono","no","18","no","black","no","Ok","NA","no","Female","768","legacy","C:/Users/User/Dropbox/Sussex/Consciousness and control/Exp 1 - stroop suggestion and PCE/Methods/Palfi_script/laptop_size/subject-11.csv","legacy","Interactive Ising","3.0.2","0","n","n","space","NA","564","564","1395","NA","2","legacy","1024","2","48000","-16","experiment","11","odd","NA","NA","55418","78170","42898","131852","131280","131817","132421","133410","NA","NA","78171","24483","132658","131315","NA","2766","NA","NA","126835","2766","133860","NA","79568","131277","131852","Stroop CI","21","50845","22","yes","1366","GREEN"
"34","95.652173913","yes","95.652173913","23","2238","2238","#ffffff","no","practice","v;b;n;m","legacy","I have read and understood the information shown above","legacy","legacy","#ffef36","0","neutral","uniform","1","1","1","NA","0","0","0","0","0","19","19","19","19","19","0","0","5","0","19","19","0","0","NA","0","19","0","19","NA","0","19","19","12/07/16 15:11:14","The main experiment item","yes","m","W:\Sussex\Consciousness and control\Exp 1 - stroop suggestion and PCE\Methods\Palfi_script","no","mono","no","18","no","black","no","Ok","NA","no","Female","768","legacy","C:/Users/User/Dropbox/Sussex/Consciousness and control/Exp 1 - stroop suggestion and PCE/Methods/Palfi_script/laptop_size/subject-11.csv","legacy","Interactive Ising","3.0.2","0","m","m","space","NA","649","649","1395","NA","2","legacy","1024","2","48000","-16","experiment","11","odd","NA","NA","55418","78170","42898","134585","134013","134550","135237","136225","NA","NA","78171","24483","135473","134048","NA","2766","NA","NA","126835","2766","136675","NA","79568","134011","134585","Stroop CI","22","51494","23","yes","1366","LOT"
"12","95.8333333333","yes","95.8333333333","23","2162","2162","#ffffff","no","practice","v;b;n;m","legacy","I have read and understood the information shown above","legacy","legacy","#ffef36","0","inc","uniform","1","1","1","NA","0","0","0","0","0","20","20","20","20","20","0","0","5","0","20","20","0","0","NA","0","20","0","20","NA","0","20","20","12/07/16 15:11:14","The main experiment item","yes","m","W:\Sussex\Consciousness and control\Exp 1 - stroop suggestion and PCE\Methods\Palfi_script","no","mono","no","18","no","black","no","Ok","NA","no","Female","768","legacy","C:/Users/User/Dropbox/Sussex/Consciousness and control/Exp 1 - stroop suggestion and PCE/Methods/Palfi_script/laptop_size/subject-11.csv","legacy","Interactive Ising","3.0.2","0","m","m","space","NA","396","396","1395","NA","2","legacy","1024","2","48000","-16","experiment","11","odd","NA","NA","55418","78170","42898","137385","136813","137350","137784","138772","NA","NA","78171","24483","138020","136848","NA","2766","NA","NA","126835","2766","139222","NA","79568","136811","137385","Stroop CI","23","51890","24","yes","1366","GREEN"
"4","96","yes","96","23","2116","2116","#ffffff","no","practice","v;b;n;m","legacy","I have read and understood the information shown above","legacy","legacy","blue","0","inc","uniform","1","1","1","NA","0","0","0","0","0","21","21","21","21","21","0","0","5","0","21","21","0","0","NA","0","21","0","21","NA","0","21","21","12/07/16 15:11:14","The main experiment item","yes","b","W:\Sussex\Consciousness and control\Exp 1 - stroop suggestion and PCE\Methods\Palfi_script","no","mono","no","18","no","black","no","Ok","NA","no","Female","768","legacy","C:/Users/User/Dropbox/Sussex/Consciousness and control/Exp 1 - stroop suggestion and PCE/Methods/Palfi_script/laptop_size/subject-11.csv","legacy","Interactive Ising","3.0.2","0","b","b","space","NA","1026","1026","1395","NA","2","legacy","1024","2","48000","-16","experiment","11","odd","NA","NA","55418","78170","42898","139954","139382","139919","140982","141973","NA","NA","78171","24483","141221","139417","NA","2766","NA","NA","126835","2766","142423","NA","79568","139379","139954","Stroop CI","24","52916","25","yes","1366","RED"
"13","96.1538461538","yes","96.1538461538","23","2056","2056","#ffffff","no","practice","v;b;n;m","legacy","I have read and understood the information shown above","legacy","legacy","red","0","con","uniform","1","1","1","NA","0","0","0","0","0","22","22","22","22","22","0","0","5","0","22","22","0","0","NA","0","22","0","22","NA","0","22","22","12/07/16 15:11:14","The main experiment item","yes","v","W:\Sussex\Consciousness and control\Exp 1 - stroop suggestion and PCE\Methods\Palfi_script","no","mono","no","18","no","black","no","Ok","NA","no","Female","768","legacy","C:/Users/User/Dropbox/Sussex/Consciousness and control/Exp 1 - stroop suggestion and PCE/Methods/Palfi_script/laptop_size/subject-11.csv","legacy","Interactive Ising","3.0.2","0","v","v","space","NA","556","556","1395","NA","2","legacy","1024","2","48000","-16","experiment","11","odd","NA","NA","55418","78170","42898","143178","142606","143143","143737","144726","NA","NA","78171","24483","143973","142641","NA","2766","NA","NA","126835","2766","145177","NA","79568","142603","143178","Stroop CI","25","53472","26","yes","1366","RED"
"24","96.2962962963","yes","96.2962962963","23","2002","2002","#ffffff","no","practice","v;b;n;m","legacy","I have read and understood the information shown above","legacy","legacy","#ffef36","0","con","uniform","1","1","1","NA","0","0","0","0","0","23","23","23","23","23","0","0","5","0","23","23","0","0","NA","0","23","0","23","NA","0","23","23","12/07/16 15:11:14","The main experiment item","yes","m","W:\Sussex\Consciousness and control\Exp 1 - stroop suggestion and PCE\Methods\Palfi_script","no","mono","no","18","no","black","no","Ok","NA","no","Female","768","legacy","C:/Users/User/Dropbox/Sussex/Consciousness and control/Exp 1 - stroop suggestion and PCE/Methods/Palfi_script/laptop_size/subject-11.csv","legacy","Interactive Ising","3.0.2","0","m","m","space","NA","608","608","1395","NA","2","legacy","1024","2","48000","-16","experiment","11","odd","NA","NA","55418","78170","42898","145915","145341","145880","146525","147515","NA","NA","78171","24483","146761","145376","NA","2766","NA","NA","126835","2766","147965","NA","79568","145338","145915","Stroop CI","26","54080","27","yes","1366","YELLOW"
"36","96.4285714286","yes","96.4285714286","23","1951","1951","#ffffff","no","practice","v;b;n;m","legacy","I have read and understood the information shown above","legacy","legacy","#ffef36","0","neutral","uniform","1","1","1","NA","0","0","0","0","0","24","24","24","24","24","0","0","5","0","24","24","0","0","NA","0","24","0","24","NA","0","24","24","12/07/16 15:11:14","The main experiment item","yes","m","W:\Sussex\Consciousness and control\Exp 1 - stroop suggestion and PCE\Methods\Palfi_script","no","mono","no","18","no","black","no","Ok","NA","no","Female","768","legacy","C:/Users/User/Dropbox/Sussex/Consciousness and control/Exp 1 - stroop suggestion and PCE/Methods/Palfi_script/laptop_size/subject-11.csv","legacy","Interactive Ising","3.0.2","0","m","m","space","NA","550","550","1395","NA","2","legacy","1024","2","48000","-16","experiment","11","odd","NA","NA","55418","78170","42898","148673","148101","148638","149226","150216","NA","NA","78171","24483","149464","148136","NA","2766","NA","NA","126835","2766","150666","NA","79568","148099","148673","Stroop CI","27","54630","28","yes","1366","KNIFE"
"25","96.5517241379","yes","96.5517241379","23","1899","1899","#ffffff","no","practice","v;b;n;m","legacy","I have read and understood the information shown above","legacy","legacy","red","0","neutral","uniform","1","1","1","NA","0","0","0","0","0","25","25","25","25","25","0","0","5","0","25","25","0","0","NA","0","25","0","25","NA","0","25","25","12/07/16 15:11:14","The main experiment item","yes","v","W:\Sussex\Consciousness and control\Exp 1 - stroop suggestion and PCE\Methods\Palfi_script","no","mono","no","18","no","black","no","Ok","NA","no","Female","768","legacy","C:/Users/User/Dropbox/Sussex/Consciousness and control/Exp 1 - stroop suggestion and PCE/Methods/Palfi_script/laptop_size/subject-11.csv","legacy","Interactive Ising","3.0.2","0","v","v","space","NA","466","466","1395","NA","2","legacy","1024","2","48000","-16","experiment","11","odd","NA","NA","55418","78170","42898","151393","150819","151358","151862","152850","NA","NA","78171","24483","152098","150855","NA","2766","NA","NA","126835","2766","153300","NA","79568","150817","151393","Stroop CI","28","55096","29","yes","1366","SHIP"
"7","93.3333333333","yes","93.3333333333","23","1866","1866","#ffffff","no","practice","v;b;n;m","legacy","I have read and understood the information shown above","legacy","legacy","green","0","inc","uniform","0","0","1","NA","0","0","0","0","0","26","26","26","26","26","0","0","5","0","26","26","0","0","NA","0","26","0","26","NA","0","26","26","12/07/16 15:11:14","The main experiment item","yes","n","W:\Sussex\Consciousness and control\Exp 1 - stroop suggestion and PCE\Methods\Palfi_script","no","mono","no","18","no","black","no","Ok","NA","no","Female","768","legacy","C:/Users/User/Dropbox/Sussex/Consciousness and control/Exp 1 - stroop suggestion and PCE/Methods/Palfi_script/laptop_size/subject-11.csv","legacy","Interactive Ising","3.0.2","0","b","b","space","NA","910","910","1395","NA","2","legacy","1024","2","48000","-16","experiment","11","odd","NA","NA","55418","78170","42898","154042","153470","154007","154956","155944","NA","NA","78171","24483","152098","153505","NA","2766","NA","NA","155192","2766","156394","NA","79568","153468","154042","Stroop CI","28","56006","30","yes","1366","RED"
"23","93.5483870968","yes","93.5483870968","23","1826","1826","#ffffff","no","practice","v;b;n;m","legacy","I have read and understood the information shown above","legacy","legacy","#ffef36","0","con","uniform","1","1","1","NA","0","0","0","0","0","27","27","27","27","27","0","0","5","0","27","27","0","0","NA","0","27","0","27","NA","0","27","27","12/07/16 15:11:14","The main experiment item","yes","m","W:\Sussex\Consciousness and control\Exp 1 - stroop suggestion and PCE\Methods\Palfi_script","no","mono","no","18","no","black","no","Ok","NA","no","Female","768","legacy","C:/Users/User/Dropbox/Sussex/Consciousness and control/Exp 1 - stroop suggestion and PCE/Methods/Palfi_script/laptop_size/subject-11.csv","legacy","Interactive Ising","3.0.2","0","m","m","space","NA","606","606","1395","NA","2","legacy","1024","2","48000","-16","experiment","11","odd","NA","NA","55418","78170","42898","157111","156539","157076","157720","158709","NA","NA","78171","24483","157957","156574","NA","2766","NA","NA","155192","2766","159159","NA","79568","156536","157111","Stroop CI","29","56612","31","yes","1366","YELLOW"
"9","90.625","yes","90.625","23","1793","1793","#ffffff","no","practice","v;b;n;m","legacy","I have read and understood the information shown above","legacy","legacy","green","0","inc","uniform","0","0","1","NA","0","0","0","0","0","28","28","28","28","28","0","0","5","0","28","28","0","0","NA","0","28","0","28","NA","0","28","28","12/07/16 15:11:14","The main experiment item","yes","n","W:\Sussex\Consciousness and control\Exp 1 - stroop suggestion and PCE\Methods\Palfi_script","no","mono","no","18","no","black","no","Ok","NA","no","Female","768","legacy","C:/Users/User/Dropbox/Sussex/Consciousness and control/Exp 1 - stroop suggestion and PCE/Methods/Palfi_script/laptop_size/subject-11.csv","legacy","Interactive Ising","3.0.2","0","m","m","space","NA","780","780","1395","NA","2","legacy","1024","2","48000","-16","experiment","11","odd","NA","NA","55418","78170","42898","159868","159296","159833","160651","161639","NA","NA","78171","24483","157957","159331","NA","2766","NA","NA","160887","2766","162089","NA","79568","159294","159868","Stroop CI","29","57392","32","yes","1366","YELLOW"
"18","90.9090909091","yes","90.9090909091","23","1762","1762","#ffffff","no","practice","v;b;n;m","legacy","I have read and understood the information shown above","legacy","legacy","blue","0","con","uniform","1","1","1","NA","0","0","0","0","0","29","29","29","29","29","0","0","5","0","29","29","0","0","NA","0","29","0","29","NA","0","29","29","12/07/16 15:11:14","The main experiment item","yes","b","W:\Sussex\Consciousness and control\Exp 1 - stroop suggestion and PCE\Methods\Palfi_script","no","mono","no","18","no","black","no","Ok","NA","no","Female","768","legacy","C:/Users/User/Dropbox/Sussex/Consciousness and control/Exp 1 - stroop suggestion and PCE/Methods/Palfi_script/laptop_size/subject-11.csv","legacy","Interactive Ising","3.0.2","0","b","b","space","NA","768","768","1395","NA","2","legacy","1024","2","48000","-16","experiment","11","odd","NA","NA","55418","78170","42898","162804","162232","162769","163579","164572","NA","NA","78171","24483","163818","162267","NA","2766","NA","NA","160887","2766","165022","NA","79568","162230","162804","Stroop CI","30","58160","33","yes","1366","BLUE"
"35","91.1764705882","yes","91.1764705882","23","1731","1731","#ffffff","no","practice","v;b;n;m","legacy","I have read and understood the information shown above","legacy","legacy","#ffef36","0","neutral","uniform","1","1","1","NA","0","0","0","0","0","30","30","30","30","30","0","0","5","0","30","30","0","0","NA","0","30","0","30","NA","0","30","30","12/07/16 15:11:14","The main experiment item","yes","m","W:\Sussex\Consciousness and control\Exp 1 - stroop suggestion and PCE\Methods\Palfi_script","no","mono","no","18","no","black","no","Ok","NA","no","Female","768","legacy","C:/Users/User/Dropbox/Sussex/Consciousness and control/Exp 1 - stroop suggestion and PCE/Methods/Palfi_script/laptop_size/subject-11.csv","legacy","Interactive Ising","3.0.2","0","m","m","space","NA","702","702","1395","NA","2","legacy","1024","2","48000","-16","experiment","11","odd","NA","NA","55418","78170","42898","165763","165190","165727","166467","167456","NA","NA","78171","24483","166704","165225","NA","2766","NA","NA","160887","2766","167906","NA","79568","165187","165762","Stroop CI","31","58862","34","yes","1366","SHIP"
"28","88.5714285714","yes","88.5714285714","23","1697","1697","#ffffff","no","practice","v;b;n;m","legacy","I have read and understood the information shown above","legacy","legacy","blue","0","neutral","uniform","0","0","1","NA","0","0","0","0","0","31","31","31","31","31","0","0","5","0","31","31","0","0","NA","0","31","0","31","NA","0","31","31","12/07/16 15:11:14","The main experiment item","yes","b","W:\Sussex\Consciousness and control\Exp 1 - stroop suggestion and PCE\Methods\Palfi_script","no","mono","no","18","no","black","no","Ok","NA","no","Female","768","legacy","C:/Users/User/Dropbox/Sussex/Consciousness and control/Exp 1 - stroop suggestion and PCE/Methods/Palfi_script/laptop_size/subject-11.csv","legacy","Interactive Ising","3.0.2","0","v","v","space","NA","553","553","1395","NA","2","legacy","1024","2","48000","-16","experiment","11","odd","NA","NA","55418","78170","42898","168671","168099","168636","169227","170218","NA","NA","78171","24483","166704","168134","NA","2766","NA","NA","169466","2766","170668","NA","79568","168097","168671","Stroop CI","31","59415","35","yes","1366","LOT"
"14","88.8888888889","yes","88.8888888889","23","1664","1664","#ffffff","no","practice","v;b;n;m","legacy","I have read and understood the information shown above","legacy","legacy","red","0","con","uniform","1","1","1","NA","0","0","0","0","0","32","32","32","32","32","0","0","5","0","32","32","0","0","NA","0","32","0","32","NA","0","32","32","12/07/16 15:11:14","The main experiment item","yes","v","W:\Sussex\Consciousness and control\Exp 1 - stroop suggestion and PCE\Methods\Palfi_script","no","mono","no","18","no","black","no","Ok","NA","no","Female","768","legacy","C:/Users/User/Dropbox/Sussex/Consciousness and control/Exp 1 - stroop suggestion and PCE/Methods/Palfi_script/laptop_size/subject-11.csv","legacy","Interactive Ising","3.0.2","0","v","v","space","NA","521","521","1395","NA","2","legacy","1024","2","48000","-16","experiment","11","odd","NA","NA","55418","78170","42898","171401","170826","171366","171925","172916","NA","NA","78171","24483","172161","170862","NA","2766","NA","NA","169466","2766","173366","NA","79568","170824","171401","Stroop CI","32","59936","36","yes","1366","RED"
"32","89.1891891892","yes","89.1891891892","23","1643","1643","#ffffff","no","practice","v;b;n;m","legacy","I have read and understood the information shown above","legacy","legacy","green","0","neutral","uniform","1","1","1","NA","0","0","0","0","0","33","33","33","33","33","0","0","5","0","33","33","0","0","NA","0","33","0","33","NA","0","33","33","12/07/16 15:11:14","The main experiment item","yes","n","W:\Sussex\Consciousness and control\Exp 1 - stroop suggestion and PCE\Methods\Palfi_script","no","mono","no","18","no","black","no","Ok","NA","no","Female","768","legacy","C:/Users/User/Dropbox/Sussex/Consciousness and control/Exp 1 - stroop suggestion and PCE/Methods/Palfi_script/laptop_size/subject-11.csv","legacy","Interactive Ising","3.0.2","0","n","n","space","NA","866","866","1395","NA","2","legacy","1024","2","48000","-16","experiment","11","odd","NA","NA","55418","78170","42898","174077","173504","174041","174946","175934","NA","NA","78171","24483","175182","173539","NA","2766","NA","NA","169466","2766","176384","NA","79568","173502","174077","Stroop CI","33","60802","37","yes","1366","SHIP"
"8","89.4736842105","yes","89.4736842105","23","1616","1616","#ffffff","no","practice","v;b;n;m","legacy","I have read and understood the information shown above","legacy","legacy","green","0","inc","uniform","1","1","1","NA","0","0","0","0","0","34","34","34","34","34","0","0","5","0","34","34","0","0","NA","0","34","0","34","NA","0","34","34","12/07/16 15:11:14","The main experiment item","yes","n","W:\Sussex\Consciousness and control\Exp 1 - stroop suggestion and PCE\Methods\Palfi_script","no","mono","no","18","no","black","no","Ok","NA","no","Female","768","legacy","C:/Users/User/Dropbox/Sussex/Consciousness and control/Exp 1 - stroop suggestion and PCE/Methods/Palfi_script/laptop_size/subject-11.csv","legacy","Interactive Ising","3.0.2","0","n","n","space","NA","613","613","1395","NA","2","legacy","1024","2","48000","-16","experiment","11","odd","NA","NA","55418","78170","42898","177133","176561","177098","177749","178737","NA","NA","78171","24483","177985","176596","NA","2766","NA","NA","169466","2766","179187","NA","79568","176559","177133","Stroop CI","34","61415","38","yes","1366","BLUE"
"20","89.7435897436","yes","89.7435897436","23","1586","1586","#ffffff","no","practice","v;b;n;m","legacy","I have read and understood the information shown above","legacy","legacy","green","0","con","uniform","1","1","1","NA","0","0","0","0","0","35","35","35","35","35","0","0","5","0","35","35","0","0","NA","0","35","0","35","NA","0","35","35","12/07/16 15:11:14","The main experiment item","yes","n","W:\Sussex\Consciousness and control\Exp 1 - stroop suggestion and PCE\Methods\Palfi_script","no","mono","no","18","no","black","no","Ok","NA","no","Female","768","legacy","C:/Users/User/Dropbox/Sussex/Consciousness and control/Exp 1 - stroop suggestion and PCE/Methods/Palfi_script/laptop_size/subject-11.csv","legacy","Interactive Ising","3.0.2","0","n","n","space","NA","450","450","1395","NA","2","legacy","1024","2","48000","-16","experiment","11","odd","NA","NA","55418","78170","42898","179907","179335","179872","180360","181348","NA","NA","78171","24483","180596","179370","NA","2766","NA","NA","169466","2766","181798","NA","79568","179333","179907","Stroop CI","35","61865","39","yes","1366","GREEN"
"81","90.243902439","yes","90.243902439","23","2200","2200","#ffffff","no","C","v;b;n;m","legacy","I have read and understood the information shown above","legacy","legacy","green","0","con","uniform","1","1","1","NA","0","0","0","0","0","36","36","36","36","36","0","0","5","0","36","36","0","0","NA","0","36","0","36","NA","0","36","36","12/07/16 15:11:14","The main experiment item","yes","n","W:\Sussex\Consciousness and control\Exp 1 - stroop suggestion and PCE\Methods\Palfi_script","no","mono","no","18","no","black","no","Ok","NA","no","Female","768","legacy","C:/Users/User/Dropbox/Sussex/Consciousness and control/Exp 1 - stroop suggestion and PCE/Methods/Palfi_script/laptop_size/subject-11.csv","legacy","Interactive Ising","3.0.2","0","n","n","space","NA","1004","1004","27331","NA","2","legacy","1024","2","48000","-16","experiment","11","odd","209202","NA","55418","78170","42898","209880","209306","209845","210887","211875","181870","NA","181870","24483","211123","209341","NA","2766","NA","NA","169466","2766","212325","NA","79568","209304","209880","Stroop CI","37","90200","41","yes","1366","GREEN"
"18","90.4761904762","yes","90.4761904762","23","2158","2158","#ffffff","no","C","v;b;n;m","legacy","I have read and understood the information shown above","legacy","legacy","blue","0","neutral","uniform","1","1","1","NA","0","0","0","0","0","37","37","37","37","37","0","0","5","0","37","37","0","0","NA","0","37","0","37","NA","0","37","37","12/07/16 15:11:14","The main experiment item","yes","b","W:\Sussex\Consciousness and control\Exp 1 - stroop suggestion and PCE\Methods\Palfi_script","no","mono","no","18","no","black","no","Ok","NA","no","Female","768","legacy","C:/Users/User/Dropbox/Sussex/Consciousness and control/Exp 1 - stroop suggestion and PCE/Methods/Palfi_script/laptop_size/subject-11.csv","legacy","Interactive Ising","3.0.2","0","b","b","space","NA","446","446","27331","NA","2","legacy","1024","2","48000","-16","experiment","11","odd","209202","NA","55418","78170","42898","213071","212498","213036","213520","214512","181870","NA","181870","24483","213758","212534","NA","2766","NA","NA","169466","2766","214962","NA","79568","212495","213071","Stroop CI","38","90646","42","yes","1366","FLOWER"
"51","88.3720930233","yes","88.3720930233","23","2120","2120","#ffffff","no","C","v;b;n;m","legacy","I have read and understood the information shown above","legacy","legacy","blue","0","con","uniform","0","0","1","NA","0","0","0","0","0","38","38","38","38","38","0","0","5","0","38","38","0","0","NA","0","38","0","38","NA","0","38","38","12/07/16 15:11:14","The main experiment item","yes","b","W:\Sussex\Consciousness and control\Exp 1 - stroop suggestion and PCE\Methods\Palfi_script","no","mono","no","18","no","black","no","Ok","NA","no","Female","768","legacy","C:/Users/User/Dropbox/Sussex/Consciousness and control/Exp 1 - stroop suggestion and PCE/Methods/Palfi_script/laptop_size/subject-11.csv","legacy","Interactive Ising","3.0.2","0","n","n","space","NA","545","545","27331","NA","2","legacy","1024","2","48000","-16","experiment","11","odd","209202","NA","55418","78170","42898","215670","215097","215635","216217","217205","181870","NA","181870","24483","213758","215133","NA","2766","NA","NA","216453","2766","217655","NA","79568","215095","215670","Stroop CI","38","91191","43","yes","1366","BLUE"
"13","88.6363636364","yes","88.6363636364","23","2082","2082","#ffffff","no","C","v;b;n;m","legacy","I have read and understood the information shown above","legacy","legacy","red","0","neutral","uniform","1","1","1","NA","0","0","0","0","0","39","39","39","39","39","0","0","5","0","39","39","0","0","NA","0","39","0","39","NA","0","39","39","12/07/16 15:11:14","The main experiment item","yes","v","W:\Sussex\Consciousness and control\Exp 1 - stroop suggestion and PCE\Methods\Palfi_script","no","mono","no","18","no","black","no","Ok","NA","no","Female","768","legacy","C:/Users/User/Dropbox/Sussex/Consciousness and control/Exp 1 - stroop suggestion and PCE/Methods/Palfi_script/laptop_size/subject-11.csv","legacy","Interactive Ising","3.0.2","0","v","v","space","NA","457","457","27331","NA","2","legacy","1024","2","48000","-16","experiment","11","odd","209202","NA","55418","78170","42898","218372","217800","218337","218832","219820","181870","NA","181870","24483","219068","217835","NA","2766","NA","NA","216453","2766","220271","NA","79568","217797","218372","Stroop CI","39","91648","44","yes","1366","SHIP"
"72","88.8888888889","yes","88.8888888889","23","2049","2049","#ffffff","no","C","v;b;n;m","legacy","I have read and understood the information shown above","legacy","legacy","blue","0","con","uniform","1","1","1","NA","0","0","0","0","0","40","40","40","40","40","0","0","5","0","40","40","0","0","NA","0","40","0","40","NA","0","40","40","12/07/16 15:11:14","The main experiment item","yes","b","W:\Sussex\Consciousness and control\Exp 1 - stroop suggestion and PCE\Methods\Palfi_script","no","mono","no","18","no","black","no","Ok","NA","no","Female","768","legacy","C:/Users/User/Dropbox/Sussex/Consciousness and control/Exp 1 - stroop suggestion and PCE/Methods/Palfi_script/laptop_size/subject-11.csv","legacy","Interactive Ising","3.0.2","0","b","b","space","NA","577","577","27331","NA","2","legacy","1024","2","48000","-16","experiment","11","odd","209202","NA","55418","78170","42898","221035","220463","221000","221615","222604","181870","NA","181870","24483","221852","220498","NA","2766","NA","NA","216453","2766","223054","NA","79568","220460","221035","Stroop CI","40","92225","45","yes","1366","BLUE"
"36","89.1304347826","yes","89.1304347826","23","2017","2017","#ffffff","no","C","v;b;n;m","legacy","I have read and understood the information shown above","legacy","legacy","red","0","con","uniform","1","1","1","NA","0","0","0","0","0","41","41","41","41","41","0","0","5","0","41","41","0","0","NA","0","41","0","41","NA","0","41","41","12/07/16 15:11:14","The main experiment item","yes","v","W:\Sussex\Consciousness and control\Exp 1 - stroop suggestion and PCE\Methods\Palfi_script","no","mono","no","18","no","black","no","Ok","NA","no","Female","768","legacy","C:/Users/User/Dropbox/Sussex/Consciousness and control/Exp 1 - stroop suggestion and PCE/Methods/Palfi_script/laptop_size/subject-11.csv","legacy","Interactive Ising","3.0.2","0","v","v","space","NA","599","599","27331","NA","2","legacy","1024","2","48000","-16","experiment","11","odd","209202","NA","55418","78170","42898","223831","223259","223796","224432","225421","181870","NA","181870","24483","224669","223294","NA","2766","NA","NA","216453","2766","225871","NA","79568","223257","223831","Stroop CI","41","92824","46","yes","1366","RED"
"70","89.3617021277","yes","89.3617021277","23","1984","1984","#ffffff","no","C","v;b;n;m","legacy","I have read and understood the information shown above","legacy","legacy","blue","0","con","uniform","1","1","1","NA","0","0","0","0","0","42","42","42","42","42","0","0","5","0","42","42","0","0","NA","0","42","0","42","NA","0","42","42","12/07/16 15:11:14","The main experiment item","yes","b","W:\Sussex\Consciousness and control\Exp 1 - stroop suggestion and PCE\Methods\Palfi_script","no","mono","no","18","no","black","no","Ok","NA","no","Female","768","legacy","C:/Users/User/Dropbox/Sussex/Consciousness and control/Exp 1 - stroop suggestion and PCE/Methods/Palfi_script/laptop_size/subject-11.csv","legacy","Interactive Ising","3.0.2","0","b","b","space","NA","432","432","27331","NA","2","legacy","1024","2","48000","-16","experiment","11","odd","209202","NA","55418","78170","42898","226575","226003","226540","227010","227999","181870","NA","181870","24483","227247","226038","NA","2766","NA","NA","216453","2766","228449","NA","79568","226001","226575","Stroop CI","42","93256","47","yes","1366","BLUE"
"97","89.5833333333","yes","89.5833333333","23","1957","1957","#ffffff","no","C","v;b;n;m","legacy","I have read and understood the information shown above","legacy","legacy","#ffef36","0","con","uniform","1","1","1","NA","0","0","0","0","0","43","43","43","43","43","0","0","5","0","43","43","0","0","NA","0","43","0","43","NA","0","43","43","12/07/16 15:11:14","The main experiment item","yes","m","W:\Sussex\Consciousness and control\Exp 1 - stroop suggestion and PCE\Methods\Palfi_script","no","mono","no","18","no","black","no","Ok","NA","no","Female","768","legacy","C:/Users/User/Dropbox/Sussex/Consciousness and control/Exp 1 - stroop suggestion and PCE/Methods/Palfi_script/laptop_size/subject-11.csv","legacy","Interactive Ising","3.0.2","0","m","m","space","NA","684","684","27331","NA","2","legacy","1024","2","48000","-16","experiment","11","odd","209202","NA","55418","78170","42898","229166","228594","229131","229853","230844","181870","NA","181870","24483","230091","228629","NA","2766","NA","NA","216453","2766","231294","NA","79568","228592","229166","Stroop CI","43","93940","48","yes","1366","YELLOW"
"92","89.7959183673","yes","89.7959183673","23","1925","1925","#ffffff","no","C","v;b;n;m","legacy","I have read and understood the information shown above","legacy","legacy","green","0","con","uniform","1","1","1","NA","0","0","0","0","0","44","44","44","44","44","0","0","5","0","44","44","0","0","NA","0","44","0","44","NA","0","44","44","12/07/16 15:11:14","The main experiment item","yes","n","W:\Sussex\Consciousness and control\Exp 1 - stroop suggestion and PCE\Methods\Palfi_script","no","mono","no","18","no","black","no","Ok","NA","no","Female","768","legacy","C:/Users/User/Dropbox/Sussex/Consciousness and control/Exp 1 - stroop suggestion and PCE/Methods/Palfi_script/laptop_size/subject-11.csv","legacy","Interactive Ising","3.0.2","0","n","n","space","NA","410","410","27331","NA","2","legacy","1024","2","48000","-16","experiment","11","odd","209202","NA","55418","78170","42898","232004","231432","231969","232416","233408","181870","NA","181870","24483","232654","231467","NA","2766","NA","NA","216453","2766","233858","NA","79568","231429","232004","Stroop CI","44","94350","49","yes","1366","GREEN"
"6","88","yes","88","23","1897","1897","#ffffff","no","C","v;b;n;m","legacy","I have read and understood the information shown above","legacy","legacy","red","0","inc","uniform","0","0","1","NA","0","0","0","0","0","45","45","45","45","45","0","0","5","0","45","45","0","0","NA","0","45","0","45","NA","0","45","45","12/07/16 15:11:14","The main experiment item","yes","v","W:\Sussex\Consciousness and control\Exp 1 - stroop suggestion and PCE\Methods\Palfi_script","no","mono","no","18","no","black","no","Ok","NA","no","Female","768","legacy","C:/Users/User/Dropbox/Sussex/Consciousness and control/Exp 1 - stroop suggestion and PCE/Methods/Palfi_script/laptop_size/subject-11.csv","legacy","Interactive Ising","3.0.2","0","m","m","space","NA","514","514","27331","NA","2","legacy","1024","2","48000","-16","experiment","11","odd","209202","NA","55418","78170","42898","234566","233994","234531","235083","236071","181870","NA","181870","24483","232654","234029","NA","2766","NA","NA","235319","2766","236521","NA","79568","233992","234566","Stroop CI","44","94864","50","yes","1366","YELLOW"
"44","88.2352941176","yes","88.2352941176","23","1871","1871","#ffffff","no","C","v;b;n;m","legacy","I have read and understood the information shown above","legacy","legacy","red","0","con","uniform","1","1","1","NA","0","0","0","0","0","46","46","46","46","46","0","0","5","0","46","46","0","0","NA","0","46","0","46","NA","0","46","46","12/07/16 15:11:14","The main experiment item","yes","v","W:\Sussex\Consciousness and control\Exp 1 - stroop suggestion and PCE\Methods\Palfi_script","no","mono","no","18","no","black","no","Ok","NA","no","Female","768","legacy","C:/Users/User/Dropbox/Sussex/Consciousness and control/Exp 1 - stroop suggestion and PCE/Methods/Palfi_script/laptop_size/subject-11.csv","legacy","Interactive Ising","3.0.2","0","v","v","space","NA","565","565","27331","NA","2","legacy","1024","2","48000","-16","experiment","11","odd","209202","NA","55418","78170","42898","237231","236659","237196","237802","238793","181870","NA","181870","24483","238039","236694","NA","2766","NA","NA","235319","2766","239243","NA","79568","236656","237231","Stroop CI","45","95429","51","yes","1366","RED"
"113","88.4615384615","yes","88.4615384615","23","1845","1845","#ffffff","no","C","v;b;n;m","legacy","I have read and understood the information shown above","legacy","legacy","#ffef36","0","con","uniform","1","1","1","NA","0","0","0","0","0","47","47","47","47","47","0","0","5","0","47","47","0","0","NA","0","47","0","47","NA","0","47","47","12/07/16 15:11:14","The main experiment item","yes","m","W:\Sussex\Consciousness and control\Exp 1 - stroop suggestion and PCE\Methods\Palfi_script","no","mono","no","18","no","black","no","Ok","NA","no","Female","768","legacy","C:/Users/User/Dropbox/Sussex/Consciousness and control/Exp 1 - stroop suggestion and PCE/Methods/Palfi_script/laptop_size/subject-11.csv","legacy","Interactive Ising","3.0.2","0","m","m","space","NA","554","554","27331","NA","2","legacy","1024","2","48000","-16","experiment","11","odd","209202","NA","55418","78170","42898","239993","239420","239957","240550","241542","181870","NA","181870","24483","240788","239455","NA","2766","NA","NA","235319","2766","241992","NA","79568","239418","239993","Stroop CI","46","95983","52","yes","1366","YELLOW"
"37","88.679245283","yes","88.679245283","23","1819","1819","#ffffff","no","C","v;b;n;m","legacy","I have read and understood the information shown above","legacy","legacy","red","0","con","uniform","1","1","1","NA","0","0","0","0","0","48","48","48","48","48","0","0","5","0","48","48","0","0","NA","0","48","0","48","NA","0","48","48","12/07/16 15:11:14","The main experiment item","yes","v","W:\Sussex\Consciousness and control\Exp 1 - stroop suggestion and PCE\Methods\Palfi_script","no","mono","no","18","no","black","no","Ok","NA","no","Female","768","legacy","C:/Users/User/Dropbox/Sussex/Consciousness and control/Exp 1 - stroop suggestion and PCE/Methods/Palfi_script/laptop_size/subject-11.csv","legacy","Interactive Ising","3.0.2","0","v","v","space","NA","439","439","27331","NA","2","legacy","1024","2","48000","-16","experiment","11","odd","209202","NA","55418","78170","42898","242731","242156","242696","243173","244163","181870","NA","181870","24483","243411","242192","NA","2766","NA","NA","235319","2766","244613","NA","79568","242154","242731","Stroop CI","47","96422","53","yes","1366","RED"
"104","88.8888888889","yes","88.8888888889","23","1796","1796","#ffffff","no","C","v;b;n;m","legacy","I have read and understood the information shown above","legacy","legacy","#ffef36","0","con","uniform","1","1","1","NA","0","0","0","0","0","49","49","49","49","49","0","0","5","0","49","49","0","0","NA","0","49","0","49","NA","0","49","49","12/07/16 15:11:14","The main experiment item","yes","m","W:\Sussex\Consciousness and control\Exp 1 - stroop suggestion and PCE\Methods\Palfi_script","no","mono","no","18","no","black","no","Ok","NA","no","Female","768","legacy","C:/Users/User/Dropbox/Sussex/Consciousness and control/Exp 1 - stroop suggestion and PCE/Methods/Palfi_script/laptop_size/subject-11.csv","legacy","Interactive Ising","3.0.2","0","m","m","space","NA","568","568","27331","NA","2","legacy","1024","2","48000","-16","experiment","11","odd","209202","NA","55418","78170","42898","245323","244751","245288","245893","246884","181870","NA","181870","24483","246131","244786","NA","2766","NA","NA","235319","2766","247334","NA","79568","244748","245323","Stroop CI","48","96990","54","yes","1366","YELLOW"
"49","89.0909090909","yes","89.0909090909","23","1785","1785","#ffffff","no","C","v;b;n;m","legacy","I have read and understood the information shown above","legacy","legacy","blue","0","con","uniform","1","1","1","NA","0","0","0","0","0","50","50","50","50","50","0","0","5","0","50","50","0","0","NA","0","50","0","50","NA","0","50","50","12/07/16 15:11:14","The main experiment item","yes","b","W:\Sussex\Consciousness and control\Exp 1 - stroop suggestion and PCE\Methods\Palfi_script","no","mono","no","18","no","black","no","Ok","NA","no","Female","768","legacy","C:/Users/User/Dropbox/Sussex/Consciousness and control/Exp 1 - stroop suggestion and PCE/Methods/Palfi_script/laptop_size/subject-11.csv","legacy","Interactive Ising","3.0.2","0","b","b","space","NA","1217","1217","27331","NA","2","legacy","1024","2","48000","-16","experiment","11","odd","209202","NA","55418","78170","42898","248061","247488","248026","249280","250269","181870","NA","181870","24483","249517","247524","NA","2766","NA","NA","235319","2766","250719","NA","79568","247485","248061","Stroop CI","49","98207","55","yes","1366","BLUE"
"20","89.2857142857","yes","89.2857142857","23","1763","1763","#ffffff","no","C","v;b;n;m","legacy","I have read and understood the information shown above","legacy","legacy","green","0","neutral","uniform","1","1","1","NA","0","0","0","0","0","51","51","51","51","51","0","0","5","0","51","51","0","0","NA","0","51","0","51","NA","0","51","51","12/07/16 15:11:14","The main experiment item","yes","n","W:\Sussex\Consciousness and control\Exp 1 - stroop suggestion and PCE\Methods\Palfi_script","no","mono","no","18","no","black","no","Ok","NA","no","Female","768","legacy","C:/Users/User/Dropbox/Sussex/Consciousness and control/Exp 1 - stroop suggestion and PCE/Methods/Palfi_script/laptop_size/subject-11.csv","legacy","Interactive Ising","3.0.2","0","n","n","space","NA","540","540","27331","NA","2","legacy","1024","2","48000","-16","experiment","11","odd","209202","NA","55418","78170","42898","251431","250859","251396","251973","252961","181870","NA","181870","24483","252209","250894","NA","2766","NA","NA","235319","2766","253411","NA","79568","250857","251431","Stroop CI","50","98747","56","yes","1366","SHIP"
"56","89.4736842105","yes","89.4736842105","23","1745","1745","#ffffff","no","C","v;b;n;m","legacy","I have read and understood the information shown above","legacy","legacy","blue","0","con","uniform","1","1","1","NA","0","0","0","0","0","52","52","52","52","52","0","0","5","0","52","52","0","0","NA","0","52","0","52","NA","0","52","52","12/07/16 15:11:14","The main experiment item","yes","b","W:\Sussex\Consciousness and control\Exp 1 - stroop suggestion and PCE\Methods\Palfi_script","no","mono","no","18","no","black","no","Ok","NA","no","Female","768","legacy","C:/Users/User/Dropbox/Sussex/Consciousness and control/Exp 1 - stroop suggestion and PCE/Methods/Palfi_script/laptop_size/subject-11.csv","legacy","Interactive Ising","3.0.2","0","b","b","space","NA","767","767","27331","NA","2","legacy","1024","2","48000","-16","experiment","11","odd","209202","NA","55418","78170","42898","254193","253621","254158","254963","255955","181870","NA","181870","24483","255201","253656","NA","2766","NA","NA","235319","2766","256405","NA","79568","253618","254193","Stroop CI","51","99514","57","yes","1366","BLUE"
"15","89.6551724138","yes","89.6551724138","23","1725","1725","#ffffff","no","C","v;b;n;m","legacy","I have read and understood the information shown above","legacy","legacy","red","0","neutral","uniform","1","1","1","NA","0","0","0","0","0","53","53","53","53","53","0","0","5","0","53","53","0","0","NA","0","53","0","53","NA","0","53","53","12/07/16 15:11:14","The main experiment item","yes","v","W:\Sussex\Consciousness and control\Exp 1 - stroop suggestion and PCE\Methods\Palfi_script","no","mono","no","18","no","black","no","Ok","NA","no","Female","768","legacy","C:/Users/User/Dropbox/Sussex/Consciousness and control/Exp 1 - stroop suggestion and PCE/Methods/Palfi_script/laptop_size/subject-11.csv","legacy","Interactive Ising","3.0.2","0","v","v","space","NA","575","575","27331","NA","2","legacy","1024","2","48000","-16","experiment","11","odd","209202","NA","55418","78170","42898","257115","256543","257080","257693","258681","181870","NA","181870","24483","257929","256578","NA","2766","NA","NA","235319","2766","259131","NA","79568","256541","257115","Stroop CI","52","100089","58","yes","1366","FLOWER"
"86","89.8305084746","yes","89.8305084746","23","1708","1708","#ffffff","no","C","v;b;n;m","legacy","I have read and understood the information shown above","legacy","legacy","green","0","con","uniform","1","1","1","NA","0","0","0","0","0","54","54","54","54","54","0","0","5","0","54","54","0","0","NA","0","54","0","54","NA","0","54","54","12/07/16 15:11:14","The main experiment item","yes","n","W:\Sussex\Consciousness and control\Exp 1 - stroop suggestion and PCE\Methods\Palfi_script","no","mono","no","18","no","black","no","Ok","NA","no","Female","768","legacy","C:/Users/User/Dropbox/Sussex/Consciousness and control/Exp 1 - stroop suggestion and PCE/Methods/Palfi_script/laptop_size/subject-11.csv","legacy","Interactive Ising","3.0.2","0","n","n","space","NA","705","705","27331","NA","2","legacy","1024","2","48000","-16","experiment","11","odd","209202","NA","55418","78170","42898","259849","259276","259814","260561","261552","181870","NA","181870","24483","260799","259312","NA","2766","NA","NA","235319","2766","262002","NA","79568","259274","259849","Stroop CI","53","100794","59","yes","1366","GREEN"
"23","90","yes","90","23","1696","1696","#ffffff","no","C","v;b;n;m","legacy","I have read and understood the information shown above","legacy","legacy","#ffef36","0","neutral","uniform","1","1","1","NA","0","0","0","0","0","55","55","55","55","55","0","0","5","0","55","55","0","0","NA","0","55","0","55","NA","0","55","55","12/07/16 15:11:14","The main experiment item","yes","m","W:\Sussex\Consciousness and control\Exp 1 - stroop suggestion and PCE\Methods\Palfi_script","no","mono","no","18","no","black","no","Ok","NA","no","Female","768","legacy","C:/Users/User/Dropbox/Sussex/Consciousness and control/Exp 1 - stroop suggestion and PCE/Methods/Palfi_script/laptop_size/subject-11.csv","legacy","Interactive Ising","3.0.2","0","m","m","space","NA","975","975","27331","NA","2","legacy","1024","2","48000","-16","experiment","11","odd","209202","NA","55418","78170","42898","262754","262181","262718","263732","264720","181870","NA","181870","24483","263968","262216","NA","2766","NA","NA","235319","2766","265170","NA","79568","262179","262753","Stroop CI","54","101769","60","yes","1366","SHIP"
"62","90.1639344262","yes","90.1639344262","23","1680","1680","#ffffff","no","C","v;b;n;m","legacy","I have read and understood the information shown above","legacy","legacy","blue","0","con","uniform","1","1","1","NA","0","0","0","0","0","56","56","56","56","56","0","0","5","0","56","56","0","0","NA","0","56","0","56","NA","0","56","56","12/07/16 15:11:14","The main experiment item","yes","b","W:\Sussex\Consciousness and control\Exp 1 - stroop suggestion and PCE\Methods\Palfi_script","no","mono","no","18","no","black","no","Ok","NA","no","Female","768","legacy","C:/Users/User/Dropbox/Sussex/Consciousness and control/Exp 1 - stroop suggestion and PCE/Methods/Palfi_script/laptop_size/subject-11.csv","legacy","Interactive Ising","3.0.2","0","b","b","space","NA","716","716","27331","NA","2","legacy","1024","2","48000","-16","experiment","11","odd","209202","NA","55418","78170","42898","265884","265311","265848","266603","267594","181870","NA","181870","24483","266841","265346","NA","2766","NA","NA","235319","2766","268044","NA","79568","265308","265883","Stroop CI","55","102485","61","yes","1366","BLUE"
"95","90.3225806452","yes","90.3225806452","23","1670","1670","#ffffff","no","C","v;b;n;m","legacy","I have read and understood the information shown above","legacy","legacy","green","0","con","uniform","1","1","1","NA","0","0","0","0","0","57","57","57","57","57","0","0","5","0","57","57","0","0","NA","0","57","0","57","NA","0","57","57","12/07/16 15:11:14","The main experiment item","yes","n","W:\Sussex\Consciousness and control\Exp 1 - stroop suggestion and PCE\Methods\Palfi_script","no","mono","no","18","no","black","no","Ok","NA","no","Female","768","legacy","C:/Users/User/Dropbox/Sussex/Consciousness and control/Exp 1 - stroop suggestion and PCE/Methods/Palfi_script/laptop_size/subject-11.csv","legacy","Interactive Ising","3.0.2","0","n","n","space","NA","1115","1115","27331","NA","2","legacy","1024","2","48000","-16","experiment","11","odd","209202","NA","55418","78170","42898","268761","268189","268726","269879","270867","181870","NA","181870","24483","270115","268224","NA","2766","NA","NA","235319","2766","271318","NA","79568","268187","268761","Stroop CI","56","103600","62","yes","1366","GREEN"
"39","90.4761904762","yes","90.4761904762","23","1653","1653","#ffffff","no","C","v;b;n;m","legacy","I have read and understood the information shown above","legacy","legacy","red","0","con","uniform","1","1","1","NA","0","0","0","0","0","58","58","58","58","58","0","0","5","0","58","58","0","0","NA","0","58","0","58","NA","0","58","58","12/07/16 15:11:14","The main experiment item","yes","v","W:\Sussex\Consciousness and control\Exp 1 - stroop suggestion and PCE\Methods\Palfi_script","no","mono","no","18","no","black","no","Ok","NA","no","Female","768","legacy","C:/Users/User/Dropbox/Sussex/Consciousness and control/Exp 1 - stroop suggestion and PCE/Methods/Palfi_script/laptop_size/subject-11.csv","legacy","Interactive Ising","3.0.2","0","v","v","space","NA","571","571","27331","NA","2","legacy","1024","2","48000","-16","experiment","11","odd","209202","NA","55418","78170","42898","272038","271466","272003","272612","273602","181870","NA","181870","24483","272848","271501","NA","2766","NA","NA","235319","2766","274052","NA","79568","271463","272038","Stroop CI","57","104171","63","yes","1366","RED"
"71","90.625","yes","90.625","23","1638","1638","#ffffff","no","C","v;b;n;m","legacy","I have read and understood the information shown above","legacy","legacy","blue","0","con","uniform","1","1","1","NA","0","0","0","0","0","59","59","59","59","59","0","0","5","0","59","59","0","0","NA","0","59","0","59","NA","0","59","59","12/07/16 15:11:14","The main experiment item","yes","b","W:\Sussex\Consciousness and control\Exp 1 - stroop suggestion and PCE\Methods\Palfi_script","no","mono","no","18","no","black","no","Ok","NA","no","Female","768","legacy","C:/Users/User/Dropbox/Sussex/Consciousness and control/Exp 1 - stroop suggestion and PCE/Methods/Palfi_script/laptop_size/subject-11.csv","legacy","Interactive Ising","3.0.2","0","b","b","space","NA","666","666","27331","NA","2","legacy","1024","2","48000","-16","experiment","11","odd","209202","NA","55418","78170","42898","274810","274237","274775","275479","276467","181870","NA","181870","24483","275715","274273","NA","2766","NA","NA","235319","2766","276917","NA","79568","274235","274810","Stroop CI","58","104837","64","yes","1366","BLUE"
"33","90.7692307692","yes","90.7692307692","23","1622","1622","#ffffff","no","C","v;b;n;m","legacy","I have read and understood the information shown above","legacy","legacy","red","0","con","uniform","1","1","1","NA","0","0","0","0","0","60","60","60","60","60","0","0","5","0","60","60","0","0","NA","0","60","0","60","NA","0","60","60","12/07/16 15:11:14","The main experiment item","yes","v","W:\Sussex\Consciousness and control\Exp 1 - stroop suggestion and PCE\Methods\Palfi_script","no","mono","no","18","no","black","no","Ok","NA","no","Female","768","legacy","C:/Users/User/Dropbox/Sussex/Consciousness and control/Exp 1 - stroop suggestion and PCE/Methods/Palfi_script/laptop_size/subject-11.csv","legacy","Interactive Ising","3.0.2","0","v","v","space","NA","639","639","27331","NA","2","legacy","1024","2","48000","-16","experiment","11","odd","209202","NA","55418","78170","42898","277633","277060","277597","278275","279265","181870","NA","181870","24483","278511","277095","NA","2766","NA","NA","235319","2766","279715","NA","79568","277058","277632","Stroop CI","59","105476","65","yes","1366","RED"
"58","90.9090909091","yes","90.9090909091","23","1607","1607","#ffffff","no","C","v;b;n;m","legacy","I have read and understood the information shown above","legacy","legacy","blue","0","con","uniform","1","1","1","NA","0","0","0","0","0","61","61","61","61","61","0","0","5","0","61","61","0","0","NA","0","61","0","61","NA","0","61","61","12/07/16 15:11:14","The main experiment item","yes","b","W:\Sussex\Consciousness and control\Exp 1 - stroop suggestion and PCE\Methods\Palfi_script","no","mono","no","18","no","black","no","Ok","NA","no","Female","768","legacy","C:/Users/User/Dropbox/Sussex/Consciousness and control/Exp 1 - stroop suggestion and PCE/Methods/Palfi_script/laptop_size/subject-11.csv","legacy","Interactive Ising","3.0.2","0","b","b","space","NA","587","587","27331","NA","2","legacy","1024","2","48000","-16","experiment","11","odd","209202","NA","55418","78170","42898","280471","279896","280436","281061","282049","181870","NA","181870","24483","281297","279932","NA","2766","NA","NA","235319","2766","282499","NA","79568","279894","280471","Stroop CI","60","106063","66","yes","1366","BLUE"
"101","91.0447761194","yes","91.0447761194","23","1592","1592","#ffffff","no","C","v;b;n;m","legacy","I have read and understood the information shown above","legacy","legacy","#ffef36","0","con","uniform","1","1","1","NA","0","0","0","0","0","62","62","62","62","62","0","0","5","0","62","62","0","0","NA","0","62","0","62","NA","0","62","62","12/07/16 15:11:14","The main experiment item","yes","m","W:\Sussex\Consciousness and control\Exp 1 - stroop suggestion and PCE\Methods\Palfi_script","no","mono","no","18","no","black","no","Ok","NA","no","Female","768","legacy","C:/Users/User/Dropbox/Sussex/Consciousness and control/Exp 1 - stroop suggestion and PCE/Methods/Palfi_script/laptop_size/subject-11.csv","legacy","Interactive Ising","3.0.2","0","m","m","space","NA","644","644","27331","NA","2","legacy","1024","2","48000","-16","experiment","11","odd","209202","NA","55418","78170","42898","283227","282653","283192","283874","284862","181870","NA","181870","24483","284110","282688","NA","2766","NA","NA","235319","2766","285312","NA","79568","282651","283227","Stroop CI","61","106707","67","yes","1366","YELLOW"
"28","91.1764705882","yes","91.1764705882","23","1576","1576","#ffffff","no","C","v;b;n;m","legacy","I have read and understood the information shown above","legacy","legacy","red","0","con","uniform","1","1","1","NA","0","0","0","0","0","63","63","63","63","63","0","0","5","0","63","63","0","0","NA","0","63","0","63","NA","0","63","63","12/07/16 15:11:14","The main experiment item","yes","v","W:\Sussex\Consciousness and control\Exp 1 - stroop suggestion and PCE\Methods\Palfi_script","no","mono","no","18","no","black","no","Ok","NA","no","Female","768","legacy","C:/Users/User/Dropbox/Sussex/Consciousness and control/Exp 1 - stroop suggestion and PCE/Methods/Palfi_script/laptop_size/subject-11.csv","legacy","Interactive Ising","3.0.2","0","v","v","space","NA","478","478","27331","NA","2","legacy","1024","2","48000","-16","experiment","11","odd","209202","NA","55418","78170","42898","286019","285447","285984","286500","287488","181870","NA","181870","24483","286736","285482","NA","2766","NA","NA","235319","2766","287938","NA","79568","285444","286019","Stroop CI","62","107185","68","yes","1366","RED"
"11","91.3043478261","yes","91.3043478261","23","1566","1566","#ffffff","no","C","v;b;n;m","legacy","I have read and understood the information shown above","legacy","legacy","blue","0","inc","uniform","1","1","1","NA","0","0","0","0","0","64","64","64","64","64","0","0","5","0","64","64","0","0","NA","0","64","0","64","NA","0","64","64","12/07/16 15:11:14","The main experiment item","yes","b","W:\Sussex\Consciousness and control\Exp 1 - stroop suggestion and PCE\Methods\Palfi_script","no","mono","no","18","no","black","no","Ok","NA","no","Female","768","legacy","C:/Users/User/Dropbox/Sussex/Consciousness and control/Exp 1 - stroop suggestion and PCE/Methods/Palfi_script/laptop_size/subject-11.csv","legacy","Interactive Ising","3.0.2","0","b","b","space","NA","898","898","27331","NA","2","legacy","1024","2","48000","-16","experiment","11","odd","209202","NA","55418","78170","42898","288701","288129","288666","289602","290593","181870","NA","181870","24483","289840","288164","NA","2766","NA","NA","235319","2766","291043","NA","79568","288126","288701","Stroop CI","63","108083","69","yes","1366","YELLOW"
"116","91.4285714286","yes","91.4285714286","23","1555","1555","#ffffff","no","C","v;b;n;m","legacy","I have read and understood the information shown above","legacy","legacy","#ffef36","0","con","uniform","1","1","1","NA","0","0","0","0","0","65","65","65","65","65","0","0","5","0","65","65","0","0","NA","0","65","0","65","NA","0","65","65","12/07/16 15:11:14","The main experiment item","yes","m","W:\Sussex\Consciousness and control\Exp 1 - stroop suggestion and PCE\Methods\Palfi_script","no","mono","no","18","no","black","no","Ok","NA","no","Female","768","legacy","C:/Users/User/Dropbox/Sussex/Consciousness and control/Exp 1 - stroop suggestion and PCE/Methods/Palfi_script/laptop_size/subject-11.csv","legacy","Interactive Ising","3.0.2","0","m","m","space","NA","775","775","27331","NA","2","legacy","1024","2","48000","-16","experiment","11","odd","209202","NA","55418","78170","42898","291753","291181","291718","292531","293522","181870","NA","181870","24483","292767","291216","NA","2766","NA","NA","235319","2766","293972","NA","79568","291179","291753","Stroop CI","64","108858","70","yes","1366","YELLOW"
"75","91.5492957746","yes","91.5492957746","23","1549","1549","#ffffff","no","C","v;b;n;m","legacy","I have read and understood the information shown above","legacy","legacy","green","0","con","uniform","1","1","1","NA","0","0","0","0","0","66","66","66","66","66","0","0","5","0","66","66","0","0","NA","0","66","0","66","NA","0","66","66","12/07/16 15:11:14","The main experiment item","yes","n","W:\Sussex\Consciousness and control\Exp 1 - stroop suggestion and PCE\Methods\Palfi_script","no","mono","no","18","no","black","no","Ok","NA","no","Female","768","legacy","C:/Users/User/Dropbox/Sussex/Consciousness and control/Exp 1 - stroop suggestion and PCE/Methods/Palfi_script/laptop_size/subject-11.csv","legacy","Interactive Ising","3.0.2","0","n","n","space","NA","1190","1190","27331","NA","2","legacy","1024","2","48000","-16","experiment","11","odd","209202","NA","55418","78170","42898","294680","294108","294645","295873","296863","181870","NA","181870","24483","296111","294143","NA","2766","NA","NA","235319","2766","297313","NA","79568","294105","294680","Stroop CI","65","110048","71","yes","1366","GREEN"
"53","91.6666666667","yes","91.6666666667","23","1539","1539","#ffffff","no","C","v;b;n;m","legacy","I have read and understood the information shown above","legacy","legacy","blue","0","con","uniform","1","1","1","NA","0","0","0","0","0","67","67","67","67","67","0","0","5","0","67","67","0","0","NA","0","67","0","67","NA","0","67","67","12/07/16 15:11:14","The main experiment item","yes","b","W:\Sussex\Consciousness and control\Exp 1 - stroop suggestion and PCE\Methods\Palfi_script","no","mono","no","18","no","black","no","Ok","NA","no","Female","768","legacy","C:/Users/User/Dropbox/Sussex/Consciousness and control/Exp 1 - stroop suggestion and PCE/Methods/Palfi_script/laptop_size/subject-11.csv","legacy","Interactive Ising","3.0.2","0","b","b","space","NA","792","792","27331","NA","2","legacy","1024","2","48000","-16","experiment","11","odd","209202","NA","55418","78170","42898","298025","297453","297990","298820","299808","181870","NA","181870","24483","299056","297488","NA","2766","NA","NA","235319","2766","300258","NA","79568","297451","298025","Stroop CI","66","110840","72","yes","1366","BLUE"
"61","91.7808219178","yes","91.7808219178","23","1525","1525","#ffffff","no","C","v;b;n;m","legacy","I have read and understood the information shown above","legacy","legacy","blue","0","con","uniform","1","1","1","NA","0","0","0","0","0","68","68","68","68","68","0","0","5","0","68","68","0","0","NA","0","68","0","68","NA","0","68","68","12/07/16 15:11:14","The main experiment item","yes","b","W:\Sussex\Consciousness and control\Exp 1 - stroop suggestion and PCE\Methods\Palfi_script","no","mono","no","18","no","black","no","Ok","NA","no","Female","768","legacy","C:/Users/User/Dropbox/Sussex/Consciousness and control/Exp 1 - stroop suggestion and PCE/Methods/Palfi_script/laptop_size/subject-11.csv","legacy","Interactive Ising","3.0.2","0","b","b","space","NA","516","516","27331","NA","2","legacy","1024","2","48000","-16","experiment","11","odd","209202","NA","55418","78170","42898","300961","300389","300926","301481","302471","181870","NA","181870","24483","301717","300424","NA","2766","NA","NA","235319","2766","302922","NA","79568","300386","300961","Stroop CI","67","111356","73","yes","1366","BLUE"
"96","90.5405405405","yes","90.5405405405","23","1514","1514","#ffffff","no","C","v;b;n;m","legacy","I have read and understood the information shown above","legacy","legacy","green","0","con","uniform","0","0","1","NA","0","0","0","0","0","69","69","69","69","69","0","0","5","0","69","69","0","0","NA","0","69","0","69","NA","0","69","69","12/07/16 15:11:14","The main experiment item","yes","n","W:\Sussex\Consciousness and control\Exp 1 - stroop suggestion and PCE\Methods\Palfi_script","no","mono","no","18","no","black","no","Ok","NA","no","Female","768","legacy","C:/Users/User/Dropbox/Sussex/Consciousness and control/Exp 1 - stroop suggestion and PCE/Methods/Palfi_script/laptop_size/subject-11.csv","legacy","Interactive Ising","3.0.2","0","m","m","space","NA","704","704","27331","NA","2","legacy","1024","2","48000","-16","experiment","11","odd","209202","NA","55418","78170","42898","303649","303077","303614","304356","305346","181870","NA","181870","24483","301717","303112","NA","2766","NA","NA","304592","2766","305796","NA","79568","303074","303649","Stroop CI","67","112060","74","yes","1366","GREEN"
"5","90.6666666667","yes","90.6666666667","23","1506","1506","#ffffff","no","C","v;b;n;m","legacy","I have read and understood the information shown above","legacy","legacy","red","0","inc","uniform","1","1","1","NA","0","0","0","0","0","70","70","70","70","70","0","0","5","0","70","70","0","0","NA","0","70","0","70","NA","0","70","70","12/07/16 15:11:14","The main experiment item","yes","v","W:\Sussex\Consciousness and control\Exp 1 - stroop suggestion and PCE\Methods\Palfi_script","no","mono","no","18","no","black","no","Ok","NA","no","Female","768","legacy","C:/Users/User/Dropbox/Sussex/Consciousness and control/Exp 1 - stroop suggestion and PCE/Methods/Palfi_script/laptop_size/subject-11.csv","legacy","Interactive Ising","3.0.2","0","v","v","space","NA","891","891","27331","NA","2","legacy","1024","2","48000","-16","experiment","11","odd","209202","NA","55418","78170","42898","306545","305971","306510","307439","308427","181870","NA","181870","24483","307675","306008","NA","2766","NA","NA","304592","2766","308877","NA","79568","305969","306545","Stroop CI","68","112951","75","yes","1366","YELLOW"
"55","90.7894736842","yes","90.7894736842","23","1494","1494","#ffffff","no","C","v;b;n;m","legacy","I have read and understood the information shown above","legacy","legacy","blue","0","con","uniform","1","1","1","NA","0","0","0","0","0","71","71","71","71","71","0","0","5","0","71","71","0","0","NA","0","71","0","71","NA","0","71","71","12/07/16 15:11:14","The main experiment item","yes","b","W:\Sussex\Consciousness and control\Exp 1 - stroop suggestion and PCE\Methods\Palfi_script","no","mono","no","18","no","black","no","Ok","NA","no","Female","768","legacy","C:/Users/User/Dropbox/Sussex/Consciousness and control/Exp 1 - stroop suggestion and PCE/Methods/Palfi_script/laptop_size/subject-11.csv","legacy","Interactive Ising","3.0.2","0","b","b","space","NA","626","626","27331","NA","2","legacy","1024","2","48000","-16","experiment","11","odd","209202","NA","55418","78170","42898","309611","309039","309576","310239","311232","181870","NA","181870","24483","310478","309074","NA","2766","NA","NA","304592","2766","311682","NA","79568","309036","309611","Stroop CI","69","113577","76","yes","1366","BLUE"
"59","90.9090909091","yes","90.9090909091","23","1483","1483","#ffffff","no","C","v;b;n;m","legacy","I have read and understood the information shown above","legacy","legacy","blue","0","con","uniform","1","1","1","NA","0","0","0","0","0","72","72","72","72","72","0","0","5","0","72","72","0","0","NA","0","72","0","72","NA","0","72","72","12/07/16 15:11:14","The main experiment item","yes","b","W:\Sussex\Consciousness and control\Exp 1 - stroop suggestion and PCE\Methods\Palfi_script","no","mono","no","18","no","black","no","Ok","NA","no","Female","768","legacy","C:/Users/User/Dropbox/Sussex/Consciousness and control/Exp 1 - stroop suggestion and PCE/Methods/Palfi_script/laptop_size/subject-11.csv","legacy","Interactive Ising","3.0.2","0","b","b","space","NA","686","686","27331","NA","2","legacy","1024","2","48000","-16","experiment","11","odd","209202","NA","55418","78170","42898","312402","311829","312367","313091","314080","181870","NA","181870","24483","313327","311865","NA","2766","NA","NA","304592","2766","314530","NA","79568","311827","312402","Stroop CI","70","114263","77","yes","1366","BLUE"
"73","91.0256410256","yes","91.0256410256","23","1474","1474","#ffffff","no","C","v;b;n;m","legacy","I have read and understood the information shown above","legacy","legacy","green","0","con","uniform","1","1","1","NA","0","0","0","0","0","73","73","73","73","73","0","0","5","0","73","73","0","0","NA","0","73","0","73","NA","0","73","73","12/07/16 15:11:14","The main experiment item","yes","n","W:\Sussex\Consciousness and control\Exp 1 - stroop suggestion and PCE\Methods\Palfi_script","no","mono","no","18","no","black","no","Ok","NA","no","Female","768","legacy","C:/Users/User/Dropbox/Sussex/Consciousness and control/Exp 1 - stroop suggestion and PCE/Methods/Palfi_script/laptop_size/subject-11.csv","legacy","Interactive Ising","3.0.2","0","n","n","space","NA","724","724","27331","NA","2","legacy","1024","2","48000","-16","experiment","11","odd","209202","NA","55418","78170","42898","315235","314663","315200","315963","316951","181870","NA","181870","24483","316199","314698","NA","2766","NA","NA","304592","2766","317401","NA","79568","314661","315235","Stroop CI","71","114987","78","yes","1366","GREEN"
"19","91.1392405063","yes","91.1392405063","23","1463","1463","#ffffff","no","C","v;b;n;m","legacy","I have read and understood the information shown above","legacy","legacy","green","0","neutral","uniform","1","1","1","NA","0","0","0","0","0","74","74","74","74","74","0","0","5","0","74","74","0","0","NA","0","74","0","74","NA","0","74","74","12/07/16 15:11:14","The main experiment item","yes","n","W:\Sussex\Consciousness and control\Exp 1 - stroop suggestion and PCE\Methods\Palfi_script","no","mono","no","18","no","black","no","Ok","NA","no","Female","768","legacy","C:/Users/User/Dropbox/Sussex/Consciousness and control/Exp 1 - stroop suggestion and PCE/Methods/Palfi_script/laptop_size/subject-11.csv","legacy","Interactive Ising","3.0.2","0","n","n","space","NA","635","635","27331","NA","2","legacy","1024","2","48000","-16","experiment","11","odd","209202","NA","55418","78170","42898","318106","317534","318071","318744","319732","181870","NA","181870","24483","318980","317569","NA","2766","NA","NA","304592","2766","320182","NA","79568","317531","318106","Stroop CI","72","115622","79","yes","1366","LOT"
"107","91.25","yes","91.25","23","1453","1453","#ffffff","no","C","v;b;n;m","legacy","I have read and understood the information shown above","legacy","legacy","#ffef36","0","con","uniform","1","1","1","NA","0","0","0","0","0","75","75","75","75","75","0","0","5","0","75","75","0","0","NA","0","75","0","75","NA","0","75","75","12/07/16 15:11:14","The main experiment item","yes","m","W:\Sussex\Consciousness and control\Exp 1 - stroop suggestion and PCE\Methods\Palfi_script","no","mono","no","18","no","black","no","Ok","NA","no","Female","768","legacy","C:/Users/User/Dropbox/Sussex/Consciousness and control/Exp 1 - stroop suggestion and PCE/Methods/Palfi_script/laptop_size/subject-11.csv","legacy","Interactive Ising","3.0.2","0","m","m","space","NA","641","641","27331","NA","2","legacy","1024","2","48000","-16","experiment","11","odd","209202","NA","55418","78170","42898","320958","320385","320923","321602","322590","181870","NA","181870","24483","321838","320420","NA","2766","NA","NA","304592","2766","323040","NA","79568","320382","320958","Stroop CI","73","116263","80","yes","1366","YELLOW"
"118","91.3580246914","yes","91.3580246914","23","1444","1444","#ffffff","no","C","v;b;n;m","legacy","I have read and understood the information shown above","legacy","legacy","#ffef36","0","con","uniform","1","1","1","NA","0","0","0","0","0","76","76","76","76","76","0","0","5","0","76","76","0","0","NA","0","76","0","76","NA","0","76","76","12/07/16 15:11:14","The main experiment item","yes","m","W:\Sussex\Consciousness and control\Exp 1 - stroop suggestion and PCE\Methods\Palfi_script","no","mono","no","18","no","black","no","Ok","NA","no","Female","768","legacy","C:/Users/User/Dropbox/Sussex/Consciousness and control/Exp 1 - stroop suggestion and PCE/Methods/Palfi_script/laptop_size/subject-11.csv","legacy","Interactive Ising","3.0.2","0","m","m","space","NA","724","724","27331","NA","2","legacy","1024","2","48000","-16","experiment","11","odd","209202","NA","55418","78170","42898","323859","323287","323824","324586","325574","181870","NA","181870","24483","324822","323322","NA","2766","NA","NA","304592","2766","326024","NA","79568","323285","323859","Stroop CI","74","116987","81","yes","1366","YELLOW"
"63","91.4634146341","yes","91.4634146341","23","1437","1437","#ffffff","no","C","v;b;n;m","legacy","I have read and understood the information shown above","legacy","legacy","blue","0","con","uniform","1","1","1","NA","0","0","0","0","0","77","77","77","77","77","0","0","5","0","77","77","0","0","NA","0","77","0","77","NA","0","77","77","12/07/16 15:11:14","The main experiment item","yes","b","W:\Sussex\Consciousness and control\Exp 1 - stroop suggestion and PCE\Methods\Palfi_script","no","mono","no","18","no","black","no","Ok","NA","no","Female","768","legacy","C:/Users/User/Dropbox/Sussex/Consciousness and control/Exp 1 - stroop suggestion and PCE/Methods/Palfi_script/laptop_size/subject-11.csv","legacy","Interactive Ising","3.0.2","0","b","b","space","NA","902","902","27331","NA","2","legacy","1024","2","48000","-16","experiment","11","odd","209202","NA","55418","78170","42898","326742","326169","326707","327647","328636","181870","NA","181870","24483","327883","326205","NA","2766","NA","NA","304592","2766","329086","NA","79568","326167","326742","Stroop CI","75","117889","82","yes","1366","BLUE"
"80","91.5662650602","yes","91.5662650602","23","1430","1430","#ffffff","no","C","v;b;n;m","legacy","I have read and understood the information shown above","legacy","legacy","green","0","con","uniform","1","1","1","NA","0","0","0","0","0","78","78","78","78","78","0","0","5","0","78","78","0","0","NA","0","78","0","78","NA","0","78","78","12/07/16 15:11:14","The main experiment item","yes","n","W:\Sussex\Consciousness and control\Exp 1 - stroop suggestion and PCE\Methods\Palfi_script","no","mono","no","18","no","black","no","Ok","NA","no","Female","768","legacy","C:/Users/User/Dropbox/Sussex/Consciousness and control/Exp 1 - stroop suggestion and PCE/Methods/Palfi_script/laptop_size/subject-11.csv","legacy","Interactive Ising","3.0.2","0","n","n","space","NA","834","834","27331","NA","2","legacy","1024","2","48000","-16","experiment","11","odd","209202","NA","55418","78170","42898","329833","329261","329798","330669","331661","181870","NA","181870","24483","330908","329296","NA","2766","NA","NA","304592","2766","332111","NA","79568","329258","329833","Stroop CI","76","118723","83","yes","1366","GREEN"
"8","90.4761904762","yes","90.4761904762","23","1420","1420","#ffffff","no","C","v;b;n;m","legacy","I have read and understood the information shown above","legacy","legacy","blue","0","inc","uniform","0","0","1","NA","0","0","0","0","0","79","79","79","79","79","0","0","5","0","79","79","0","0","NA","0","79","0","79","NA","0","79","79","12/07/16 15:11:14","The main experiment item","yes","b","W:\Sussex\Consciousness and control\Exp 1 - stroop suggestion and PCE\Methods\Palfi_script","no","mono","no","18","no","black","no","Ok","NA","no","Female","768","legacy","C:/Users/User/Dropbox/Sussex/Consciousness and control/Exp 1 - stroop suggestion and PCE/Methods/Palfi_script/laptop_size/subject-11.csv","legacy","Interactive Ising","3.0.2","0","v","v","space","NA","597","597","27331","NA","2","legacy","1024","2","48000","-16","experiment","11","odd","209202","NA","55418","78170","42898","332815","332243","332780","333415","334403","181870","NA","181870","24483","330908","332278","NA","2766","NA","NA","333651","2766","334853","NA","79568","332241","332815","Stroop CI","76","119320","84","yes","1366","RED"
"90","90.5882352941","yes","90.5882352941","23","1414","1414","#ffffff","no","C","v;b;n;m","legacy","I have read and understood the information shown above","legacy","legacy","green","0","con","uniform","1","1","1","NA","0","0","0","0","0","80","80","80","80","80","0","0","5","0","80","80","0","0","NA","0","80","0","80","NA","0","80","80","12/07/16 15:11:14","The main experiment item","yes","n","W:\Sussex\Consciousness and control\Exp 1 - stroop suggestion and PCE\Methods\Palfi_script","no","mono","no","18","no","black","no","Ok","NA","no","Female","768","legacy","C:/Users/User/Dropbox/Sussex/Consciousness and control/Exp 1 - stroop suggestion and PCE/Methods/Palfi_script/laptop_size/subject-11.csv","legacy","Interactive Ising","3.0.2","0","n","n","space","NA","938","938","27331","NA","2","legacy","1024","2","48000","-16","experiment","11","odd","209202","NA","55418","78170","42898","335609","335037","335574","336550","337542","181870","NA","181870","24483","336786","335072","NA","2766","NA","NA","333651","2766","337992","NA","79568","335035","335609","Stroop CI","77","120258","85","yes","1366","GREEN"
"87","90.6976744186","yes","90.6976744186","23","1406","1406","#ffffff","no","C","v;b;n;m","legacy","I have read and understood the information shown above","legacy","legacy","green","0","con","uniform","1","1","1","NA","0","0","0","0","0","81","81","81","81","81","0","0","5","0","81","81","0","0","NA","0","81","0","81","NA","0","81","81","12/07/16 15:11:14","The main experiment item","yes","n","W:\Sussex\Consciousness and control\Exp 1 - stroop suggestion and PCE\Methods\Palfi_script","no","mono","no","18","no","black","no","Ok","NA","no","Female","768","legacy","C:/Users/User/Dropbox/Sussex/Consciousness and control/Exp 1 - stroop suggestion and PCE/Methods/Palfi_script/laptop_size/subject-11.csv","legacy","Interactive Ising","3.0.2","0","n","n","space","NA","735","735","27331","NA","2","legacy","1024","2","48000","-16","experiment","11","odd","209202","NA","55418","78170","42898","338754","338182","338719","339492","340480","181870","NA","181870","24483","339728","338217","NA","2766","NA","NA","333651","2766","340930","NA","79568","338179","338754","Stroop CI","78","120993","86","yes","1366","GREEN"
"27","90.8045977011","yes","90.8045977011","23","1399","1399","#ffffff","no","C","v;b;n;m","legacy","I have read and understood the information shown above","legacy","legacy","red","0","con","uniform","1","1","1","NA","0","0","0","0","0","82","82","82","82","82","0","0","5","0","82","82","0","0","NA","0","82","0","82","NA","0","82","82","12/07/16 15:11:14","The main experiment item","yes","v","W:\Sussex\Consciousness and control\Exp 1 - stroop suggestion and PCE\Methods\Palfi_script","no","mono","no","18","no","black","no","Ok","NA","no","Female","768","legacy","C:/Users/User/Dropbox/Sussex/Consciousness and control/Exp 1 - stroop suggestion and PCE/Methods/Palfi_script/laptop_size/subject-11.csv","legacy","Interactive Ising","3.0.2","0","v","v","space","NA","781","781","27331","NA","2","legacy","1024","2","48000","-16","experiment","11","odd","209202","NA","55418","78170","42898","341689","341116","341654","342473","343465","181870","NA","181870","24483","342711","341152","NA","2766","NA","NA","333651","2766","343915","NA","79568","341114","341689","Stroop CI","79","121774","87","yes","1366","RED"
"47","90.9090909091","yes","90.9090909091","23","1389","1389","#ffffff","no","C","v;b;n;m","legacy","I have read and understood the information shown above","legacy","legacy","red","0","con","uniform","1","1","1","NA","0","0","0","0","0","83","83","83","83","83","0","0","5","0","83","83","0","0","NA","0","83","0","83","NA","0","83","83","12/07/16 15:11:14","The main experiment item","yes","v","W:\Sussex\Consciousness and control\Exp 1 - stroop suggestion and PCE\Methods\Palfi_script","no","mono","no","18","no","black","no","Ok","NA","no","Female","768","legacy","C:/Users/User/Dropbox/Sussex/Consciousness and control/Exp 1 - stroop suggestion and PCE/Methods/Palfi_script/laptop_size/subject-11.csv","legacy","Interactive Ising","3.0.2","0","v","v","space","NA","542","542","27331","NA","2","legacy","1024","2","48000","-16","experiment","11","odd","209202","NA","55418","78170","42898","344633","344061","344598","345178","346168","181870","NA","181870","24483","345416","344096","NA","2766","NA","NA","333651","2766","346618","NA","79568","344059","344633","Stroop CI","80","122316","88","yes","1366","RED"
"115","91.0112359551","yes","91.0112359551","23","1382","1382","#ffffff","no","C","v;b;n;m","legacy","I have read and understood the information shown above","legacy","legacy","#ffef36","0","con","uniform","1","1","1","NA","0","0","0","0","0","84","84","84","84","84","0","0","5","0","84","84","0","0","NA","0","84","0","84","NA","0","84","84","12/07/16 15:11:14","The main experiment item","yes","m","W:\Sussex\Consciousness and control\Exp 1 - stroop suggestion and PCE\Methods\Palfi_script","no","mono","no","18","no","black","no","Ok","NA","no","Female","768","legacy","C:/Users/User/Dropbox/Sussex/Consciousness and control/Exp 1 - stroop suggestion and PCE/Methods/Palfi_script/laptop_size/subject-11.csv","legacy","Interactive Ising","3.0.2","0","m","m","space","NA","683","683","27331","NA","2","legacy","1024","2","48000","-16","experiment","11","odd","209202","NA","55418","78170","42898","347325","346753","347290","348011","349001","181870","NA","181870","24483","348247","346788","NA","2766","NA","NA","333651","2766","349451","NA","79568","346751","347325","Stroop CI","81","122999","89","yes","1366","YELLOW"
"3","91.1111111111","yes","91.1111111111","23","1372","1372","#ffffff","no","C","v;b;n;m","legacy","I have read and understood the information shown above","legacy","legacy","red","0","inc","uniform","1","1","1","NA","0","0","0","0","0","85","85","85","85","85","0","0","5","0","85","85","0","0","NA","0","85","0","85","NA","0","85","85","12/07/16 15:11:14","The main experiment item","yes","v","W:\Sussex\Consciousness and control\Exp 1 - stroop suggestion and PCE\Methods\Palfi_script","no","mono","no","18","no","black","no","Ok","NA","no","Female","768","legacy","C:/Users/User/Dropbox/Sussex/Consciousness and control/Exp 1 - stroop suggestion and PCE/Methods/Palfi_script/laptop_size/subject-11.csv","legacy","Interactive Ising","3.0.2","0","v","v","space","NA","503","503","27331","NA","2","legacy","1024","2","48000","-16","experiment","11","odd","209202","NA","55418","78170","42898","350189","349580","350117","350695","351686","181870","NA","181870","24483","350934","349615","NA","2766","NA","NA","333651","2766","352136","NA","79568","349578","350189","Stroop CI","82","123502","90","yes","1366","GREEN"
"69","91.2087912088","yes","91.2087912088","23","1363","1363","#ffffff","no","C","v;b;n;m","legacy","I have read and understood the information shown above","legacy","legacy","blue","0","con","uniform","1","1","1","NA","0","0","0","0","0","86","86","86","86","86","0","0","5","0","86","86","0","0","NA","0","86","0","86","NA","0","86","86","12/07/16 15:11:14","The main experiment item","yes","b","W:\Sussex\Consciousness and control\Exp 1 - stroop suggestion and PCE\Methods\Palfi_script","no","mono","no","18","no","black","no","Ok","NA","no","Female","768","legacy","C:/Users/User/Dropbox/Sussex/Consciousness and control/Exp 1 - stroop suggestion and PCE/Methods/Palfi_script/laptop_size/subject-11.csv","legacy","Interactive Ising","3.0.2","0","b","b","space","NA","582","582","27331","NA","2","legacy","1024","2","48000","-16","experiment","11","odd","209202","NA","55418","78170","42898","352854","352282","352819","353439","354427","181870","NA","181870","24483","353675","352317","NA","2766","NA","NA","333651","2766","354877","NA","79568","352279","352854","Stroop CI","83","124084","91","yes","1366","BLUE"
"110","91.3043478261","yes","91.3043478261","23","1355","1355","#ffffff","no","C","v;b;n;m","legacy","I have read and understood the information shown above","legacy","legacy","#ffef36","0","con","uniform","1","1","1","NA","0","0","0","0","0","87","87","87","87","87","0","0","5","0","87","87","0","0","NA","0","87","0","87","NA","0","87","87","12/07/16 15:11:14","The main experiment item","yes","m","W:\Sussex\Consciousness and control\Exp 1 - stroop suggestion and PCE\Methods\Palfi_script","no","mono","no","18","no","black","no","Ok","NA","no","Female","768","legacy","C:/Users/User/Dropbox/Sussex/Consciousness and control/Exp 1 - stroop suggestion and PCE/Methods/Palfi_script/laptop_size/subject-11.csv","legacy","Interactive Ising","3.0.2","0","m","m","space","NA","595","595","27331","NA","2","legacy","1024","2","48000","-16","experiment","11","odd","209202","NA","55418","78170","42898","355659","355087","355624","356257","357245","181870","NA","181870","24483","356493","355122","NA","2766","NA","NA","333651","2766","357695","NA","79568","355085","355659","Stroop CI","84","124679","92","yes","1366","YELLOW"
