ID,acc,accept_status,accuracy,age,average_response_time,avg_rt,background,bidi,block,buttons,canvas_backend,checkbox_status,clock_backend,color_backend,colour,compensation,congruency,coordinates,correct,correct_answer,correct_button_block,correct_new_keyboard_response,count_C,count_I,count_Instruction,count_Practice_start,count_age,count_answer,count_blank,count_blank2,count_blank3,count_blank_4,count_break,count_break2,count_button_block,count_consent_form,count_correct_feedback,count_cross,count_end,count_experiment,count_feedback,count_gender,count_incorrect_feedback,count_information_sheet,count_logger,count_new_keyboard_response,count_practice,count_stroop,count_target,datetime,description,disable_garbage_collection,expected,experiment_file,experiment_path,font_bold,font_family,font_italic,font_size,font_underline,foreground,form_clicks,form_response,form_var,fullscreen,gender,height,keyboard_backend,logfile,mouse_backend,opensesame_codename,opensesame_version,repeat_cycle,response,response_answer,response_button_block,response_new_keyboard_response,response_time,response_time_answer,response_time_button_block,response_time_new_keyboard_response,round_decimals,sampler_backend,sound_buf_size,sound_channels,sound_freq,sound_sample_size,start,subject_nr,subject_parity,time_C,time_I,time_Instruction,time_Practice_start,time_age,time_answer,time_blank,time_blank2,time_blank3,time_blank_4,time_break,time_break2,time_button_block,time_consent_form,time_correct_feedback,time_cross,time_end,time_experiment,time_feedback,time_gender,time_incorrect_feedback,time_information_sheet,time_logger,time_new_keyboard_response,time_practice,time_stroop,time_target,title,total_correct,total_response_time,total_responses,uniform_coordinates,width,word
26,100,yes,100,20,6987,6987,#ffffff,no,practice,v;b;n;m,legacy,I have read and understood the information shown above,legacy,legacy,red,0,neutral,uniform,1,1,1,NA,0,0,0,0,0,0,0,0,0,0,0,0,5,0,0,0,0,0,NA,0,0,0,0,NA,0,0,0,Thu Dec  8 18:27:41 2016,The main experiment item,yes,v,IC_RSI2000.osexp,/Users/Muki/Documents/Labor/Bence Stroop,no,mono,no,18,no,black,no,Ok,NA,no,Male,800,legacy,C:/Users/User/Dropbox/Sussex/Consciousness and control/Exp 1 - stroop suggestion and PCE/Methods/Palfi_script/laptop_size/subject-14_CI.csv,legacy,Interactive Ising,3.0.7,0,v,v,space,NA,612,612,2444,NA,2,legacy,1024,2,48000,-16,experiment,0,even,NA,NA,96886,101675,92399,104792,104191,104748,105416,106430,NA,NA,101675,66167,105667,104235,NA,47918,NA,NA,NA,47920,106881,NA,104120,104180,104792,Stroop CI,4,27949,4,yes,1280,KNIFE
24,100,yes,100,20,5737,5737,#ffffff,no,practice,v;b;n;m,legacy,I have read and understood the information shown above,legacy,legacy,#ffef36,0,con,uniform,1,1,1,NA,0,0,0,0,0,1,1,1,1,1,0,0,5,0,1,1,0,0,NA,0,1,0,1,NA,0,1,1,Thu Dec  8 18:27:41 2016,The main experiment item,yes,m,IC_RSI2000.osexp,/Users/Muki/Documents/Labor/Bence Stroop,no,mono,no,18,no,black,no,Ok,NA,no,Male,800,legacy,C:/Users/User/Dropbox/Sussex/Consciousness and control/Exp 1 - stroop suggestion and PCE/Methods/Palfi_script/laptop_size/subject-14_CI.csv,legacy,Interactive Ising,3.0.7,0,m,m,space,NA,736,736,2444,NA,2,legacy,1024,2,48000,-16,experiment,0,even,NA,NA,96886,101675,92399,107557,106956,107512,108305,109316,NA,NA,101675,66167,108553,107000,NA,47918,NA,NA,NA,47920,109766,NA,104120,106945,107557,Stroop CI,5,28685,5,yes,1280,YELLOW
17,100,yes,100,20,4885,4885,#ffffff,no,practice,v;b;n;m,legacy,I have read and understood the information shown above,legacy,legacy,blue,0,con,uniform,1,1,1,NA,0,0,0,0,0,2,2,2,2,2,0,0,5,0,2,2,0,0,NA,0,2,0,2,NA,0,2,2,Thu Dec  8 18:27:41 2016,The main experiment item,yes,b,IC_RSI2000.osexp,/Users/Muki/Documents/Labor/Bence Stroop,no,mono,no,18,no,black,no,Ok,NA,no,Male,800,legacy,C:/Users/User/Dropbox/Sussex/Consciousness and control/Exp 1 - stroop suggestion and PCE/Methods/Palfi_script/laptop_size/subject-14_CI.csv,legacy,Interactive Ising,3.0.7,0,b,b,space,NA,627,627,2444,NA,2,legacy,1024,2,48000,-16,experiment,0,even,NA,NA,96886,101675,92399,110441,109837,110395,111080,112096,NA,NA,101675,66167,111331,109883,NA,47918,NA,NA,NA,47920,112546,NA,104120,109823,110441,Stroop CI,6,29312,6,yes,1280,BLUE
11,100,yes,100,20,4264,4264,#ffffff,no,practice,v;b;n;m,legacy,I have read and understood the information shown above,legacy,legacy,#ffef36,0,inc,uniform,1,1,1,NA,0,0,0,0,0,3,3,3,3,3,0,0,5,0,3,3,0,0,NA,0,3,0,3,NA,0,3,3,Thu Dec  8 18:27:41 2016,The main experiment item,yes,m,IC_RSI2000.osexp,/Users/Muki/Documents/Labor/Bence Stroop,no,mono,no,18,no,black,no,Ok,NA,no,Male,800,legacy,C:/Users/User/Dropbox/Sussex/Consciousness and control/Exp 1 - stroop suggestion and PCE/Methods/Palfi_script/laptop_size/subject-14_CI.csv,legacy,Interactive Ising,3.0.7,0,m,m,space,NA,540,540,2444,NA,2,legacy,1024,2,48000,-16,experiment,0,even,NA,NA,96886,101675,92399,113224,112621,113178,113777,114791,NA,NA,101675,66167,114025,112665,NA,47918,NA,NA,NA,47920,115241,NA,104120,112610,113224,Stroop CI,7,29852,7,yes,1280,BLUE
33,100,yes,100,20,3781,3781,#ffffff,no,practice,v;b;n;m,legacy,I have read and understood the information shown above,legacy,legacy,green,0,neutral,uniform,1,1,1,NA,0,0,0,0,0,4,4,4,4,4,0,0,5,0,4,4,0,0,NA,0,4,0,4,NA,0,4,4,Thu Dec  8 18:27:41 2016,The main experiment item,yes,n,IC_RSI2000.osexp,/Users/Muki/Documents/Labor/Bence Stroop,no,mono,no,18,no,black,no,Ok,NA,no,Male,800,legacy,C:/Users/User/Dropbox/Sussex/Consciousness and control/Exp 1 - stroop suggestion and PCE/Methods/Palfi_script/laptop_size/subject-14_CI.csv,legacy,Interactive Ising,3.0.7,0,n,n,space,NA,401,401,2444,NA,2,legacy,1024,2,48000,-16,experiment,0,even,NA,NA,96886,101675,92399,115908,115306,115864,116322,117336,NA,NA,101675,66167,116573,115352,NA,47918,NA,NA,NA,47920,117786,NA,104120,115295,115908,Stroop CI,8,30253,8,yes,1280,FLOWER
36,88.88888889,yes,88.88888889,20,3449,3449,#ffffff,no,practice,v;b;n;m,legacy,I have read and understood the information shown above,legacy,legacy,#ffef36,0,neutral,uniform,0,0,1,NA,0,0,0,0,0,5,5,5,5,5,0,0,5,0,5,5,0,0,NA,0,5,0,5,NA,0,5,5,Thu Dec  8 18:27:41 2016,The main experiment item,yes,m,IC_RSI2000.osexp,/Users/Muki/Documents/Labor/Bence Stroop,no,mono,no,18,no,black,no,Ok,NA,no,Male,800,legacy,C:/Users/User/Dropbox/Sussex/Consciousness and control/Exp 1 - stroop suggestion and PCE/Methods/Palfi_script/laptop_size/subject-14_CI.csv,legacy,Interactive Ising,3.0.7,0,n,n,space,NA,794,794,2444,NA,2,legacy,1024,2,48000,-16,experiment,0,even,NA,NA,96886,101675,92399,118461,117857,118417,119267,120284,NA,NA,101675,66167,116573,117903,NA,47918,NA,NA,119518,47920,120734,NA,104120,117846,118461,Stroop CI,8,31047,9,yes,1280,KNIFE
2,90,yes,90,20,3152,3152,#ffffff,no,practice,v;b;n;m,legacy,I have read and understood the information shown above,legacy,legacy,red,0,inc,uniform,1,1,1,NA,0,0,0,0,0,6,6,6,6,6,0,0,5,0,6,6,0,0,NA,0,6,0,6,NA,0,6,6,Thu Dec  8 18:27:41 2016,The main experiment item,yes,v,IC_RSI2000.osexp,/Users/Muki/Documents/Labor/Bence Stroop,no,mono,no,18,no,black,no,Ok,NA,no,Male,800,legacy,C:/Users/User/Dropbox/Sussex/Consciousness and control/Exp 1 - stroop suggestion and PCE/Methods/Palfi_script/laptop_size/subject-14_CI.csv,legacy,Interactive Ising,3.0.7,0,v,v,space,NA,477,477,2444,NA,2,legacy,1024,2,48000,-16,experiment,0,even,NA,NA,96886,101675,92399,121401,120801,121357,121891,122909,NA,NA,101675,66167,122142,120845,NA,47918,NA,NA,119518,47920,123359,NA,104120,120789,121401,Stroop CI,9,31524,10,yes,1280,GREEN
21,81.81818182,yes,81.81818182,20,2931,2931,#ffffff,no,practice,v;b;n;m,legacy,I have read and understood the information shown above,legacy,legacy,green,0,con,uniform,0,0,1,NA,0,0,0,0,0,7,7,7,7,7,0,0,5,0,7,7,0,0,NA,0,7,0,7,NA,0,7,7,Thu Dec  8 18:27:41 2016,The main experiment item,yes,n,IC_RSI2000.osexp,/Users/Muki/Documents/Labor/Bence Stroop,no,mono,no,18,no,black,no,Ok,NA,no,Male,800,legacy,C:/Users/User/Dropbox/Sussex/Consciousness and control/Exp 1 - stroop suggestion and PCE/Methods/Palfi_script/laptop_size/subject-14_CI.csv,legacy,Interactive Ising,3.0.7,0,m,m,space,NA,720,720,2444,NA,2,legacy,1024,2,48000,-16,experiment,0,even,NA,NA,96886,101675,92399,124036,123431,123987,124768,125778,NA,NA,101675,66167,122142,123475,NA,47918,NA,NA,125014,47920,126228,NA,104120,123420,124036,Stroop CI,9,32244,11,yes,1280,GREEN
1,83.33333333,yes,83.33333333,20,2754,2754,#ffffff,no,practice,v;b;n;m,legacy,I have read and understood the information shown above,legacy,legacy,red,0,inc,uniform,1,1,1,NA,0,0,0,0,0,8,8,8,8,8,0,0,5,0,8,8,0,0,NA,0,8,0,8,NA,0,8,8,Thu Dec  8 18:27:41 2016,The main experiment item,yes,v,IC_RSI2000.osexp,/Users/Muki/Documents/Labor/Bence Stroop,no,mono,no,18,no,black,no,Ok,NA,no,Male,800,legacy,C:/Users/User/Dropbox/Sussex/Consciousness and control/Exp 1 - stroop suggestion and PCE/Methods/Palfi_script/laptop_size/subject-14_CI.csv,legacy,Interactive Ising,3.0.7,0,v,v,space,NA,804,804,2444,NA,2,legacy,1024,2,48000,-16,experiment,0,even,NA,NA,96886,101675,92399,126906,126304,126862,127722,128731,NA,NA,101675,66167,127967,126350,NA,47918,NA,NA,125014,47920,129181,NA,104120,126293,126906,Stroop CI,10,33048,12,yes,1280,BLUE
7,84.61538462,yes,84.61538462,20,2626,2626,#ffffff,no,practice,v;b;n;m,legacy,I have read and understood the information shown above,legacy,legacy,green,0,inc,uniform,1,1,1,NA,0,0,0,0,0,9,9,9,9,9,0,0,5,0,9,9,0,0,NA,0,9,0,9,NA,0,9,9,Thu Dec  8 18:27:41 2016,The main experiment item,yes,n,IC_RSI2000.osexp,/Users/Muki/Documents/Labor/Bence Stroop,no,mono,no,18,no,black,no,Ok,NA,no,Male,800,legacy,C:/Users/User/Dropbox/Sussex/Consciousness and control/Exp 1 - stroop suggestion and PCE/Methods/Palfi_script/laptop_size/subject-14_CI.csv,legacy,Interactive Ising,3.0.7,0,n,n,space,NA,1101,1101,2444,NA,2,legacy,1024,2,48000,-16,experiment,0,even,NA,NA,96886,101675,92399,129870,129264,129821,130982,131990,NA,NA,101675,66167,131228,129308,NA,47918,NA,NA,125014,47920,132440,NA,104120,129253,129870,Stroop CI,11,34149,13,yes,1280,RED
22,85.71428571,yes,85.71428571,20,2521,2521,#ffffff,no,practice,v;b;n;m,legacy,I have read and understood the information shown above,legacy,legacy,#ffef36,0,con,uniform,1,1,1,NA,0,0,0,0,0,10,10,10,10,10,0,0,5,0,10,10,0,0,NA,0,10,0,10,NA,0,10,10,Thu Dec  8 18:27:41 2016,The main experiment item,yes,m,IC_RSI2000.osexp,/Users/Muki/Documents/Labor/Bence Stroop,no,mono,no,18,no,black,no,Ok,NA,no,Male,800,legacy,C:/Users/User/Dropbox/Sussex/Consciousness and control/Exp 1 - stroop suggestion and PCE/Methods/Palfi_script/laptop_size/subject-14_CI.csv,legacy,Interactive Ising,3.0.7,0,m,m,space,NA,1152,1152,2444,NA,2,legacy,1024,2,48000,-16,experiment,0,even,NA,NA,96886,101675,92399,133107,132499,133060,134272,135285,NA,NA,101675,66167,134519,132546,NA,47918,NA,NA,125014,47920,135735,NA,104120,132488,133106,Stroop CI,12,35301,14,yes,1280,YELLOW
19,86.66666667,yes,86.66666667,20,2407,2407,#ffffff,no,practice,v;b;n;m,legacy,I have read and understood the information shown above,legacy,legacy,green,0,con,uniform,1,1,1,NA,0,0,0,0,0,11,11,11,11,11,0,0,5,0,11,11,0,0,NA,0,11,0,11,NA,0,11,11,Thu Dec  8 18:27:41 2016,The main experiment item,yes,n,IC_RSI2000.osexp,/Users/Muki/Documents/Labor/Bence Stroop,no,mono,no,18,no,black,no,Ok,NA,no,Male,800,legacy,C:/Users/User/Dropbox/Sussex/Consciousness and control/Exp 1 - stroop suggestion and PCE/Methods/Palfi_script/laptop_size/subject-14_CI.csv,legacy,Interactive Ising,3.0.7,0,n,n,space,NA,817,817,2444,NA,2,legacy,1024,2,48000,-16,experiment,0,even,NA,NA,96886,101675,92399,136412,135806,136362,137243,138257,NA,NA,101675,66167,137494,135850,NA,47918,NA,NA,125014,47920,138707,NA,104120,135795,136412,Stroop CI,13,36118,15,yes,1280,GREEN
35,87.5,yes,87.5,20,2294,2294,#ffffff,no,practice,v;b;n;m,legacy,I have read and understood the information shown above,legacy,legacy,#ffef36,0,neutral,uniform,1,1,1,NA,0,0,0,0,0,12,12,12,12,12,0,0,5,0,12,12,0,0,NA,0,12,0,12,NA,0,12,12,Thu Dec  8 18:27:41 2016,The main experiment item,yes,m,IC_RSI2000.osexp,/Users/Muki/Documents/Labor/Bence Stroop,no,mono,no,18,no,black,no,Ok,NA,no,Male,800,legacy,C:/Users/User/Dropbox/Sussex/Consciousness and control/Exp 1 - stroop suggestion and PCE/Methods/Palfi_script/laptop_size/subject-14_CI.csv,legacy,Interactive Ising,3.0.7,0,m,m,space,NA,599,599,2444,NA,2,legacy,1024,2,48000,-16,experiment,0,even,NA,NA,96886,101675,92399,139368,138768,139323,139978,140986,NA,NA,101675,66167,140224,138812,NA,47918,NA,NA,125014,47920,141437,NA,104120,138756,139368,Stroop CI,14,36717,16,yes,1280,SHIP
28,88.23529412,yes,88.23529412,20,2202,2202,#ffffff,no,practice,v;b;n;m,legacy,I have read and understood the information shown above,legacy,legacy,blue,0,neutral,uniform,1,1,1,NA,0,0,0,0,0,13,13,13,13,13,0,0,5,0,13,13,0,0,NA,0,13,0,13,NA,0,13,13,Thu Dec  8 18:27:41 2016,The main experiment item,yes,b,IC_RSI2000.osexp,/Users/Muki/Documents/Labor/Bence Stroop,no,mono,no,18,no,black,no,Ok,NA,no,Male,800,legacy,C:/Users/User/Dropbox/Sussex/Consciousness and control/Exp 1 - stroop suggestion and PCE/Methods/Palfi_script/laptop_size/subject-14_CI.csv,legacy,Interactive Ising,3.0.7,0,b,b,space,NA,723,723,2444,NA,2,legacy,1024,2,48000,-16,experiment,0,even,NA,NA,96886,101675,92399,142103,141502,142060,142837,143849,NA,NA,101675,66167,143084,141545,NA,47918,NA,NA,125014,47920,144299,NA,104120,141492,142103,Stroop CI,15,37440,17,yes,1280,LOT
18,88.88888889,yes,88.88888889,20,2116,2116,#ffffff,no,practice,v;b;n;m,legacy,I have read and understood the information shown above,legacy,legacy,blue,0,con,uniform,1,1,1,NA,0,0,0,0,0,14,14,14,14,14,0,0,5,0,14,14,0,0,NA,0,14,0,14,NA,0,14,14,Thu Dec  8 18:27:41 2016,The main experiment item,yes,b,IC_RSI2000.osexp,/Users/Muki/Documents/Labor/Bence Stroop,no,mono,no,18,no,black,no,Ok,NA,no,Male,800,legacy,C:/Users/User/Dropbox/Sussex/Consciousness and control/Exp 1 - stroop suggestion and PCE/Methods/Palfi_script/laptop_size/subject-14_CI.csv,legacy,Interactive Ising,3.0.7,0,b,b,space,NA,650,650,2444,NA,2,legacy,1024,2,48000,-16,experiment,0,even,NA,NA,96886,101675,92399,144965,144367,144921,145626,146638,NA,NA,101675,66167,145873,144410,NA,47918,NA,NA,125014,47920,147088,NA,104120,144357,144965,Stroop CI,16,38090,18,yes,1280,BLUE
20,89.47368421,yes,89.47368421,20,2039,2039,#ffffff,no,practice,v;b;n;m,legacy,I have read and understood the information shown above,legacy,legacy,green,0,con,uniform,1,1,1,NA,0,0,0,0,0,15,15,15,15,15,0,0,5,0,15,15,0,0,NA,0,15,0,15,NA,0,15,15,Thu Dec  8 18:27:41 2016,The main experiment item,yes,n,IC_RSI2000.osexp,/Users/Muki/Documents/Labor/Bence Stroop,no,mono,no,18,no,black,no,Ok,NA,no,Male,800,legacy,C:/Users/User/Dropbox/Sussex/Consciousness and control/Exp 1 - stroop suggestion and PCE/Methods/Palfi_script/laptop_size/subject-14_CI.csv,legacy,Interactive Ising,3.0.7,0,n,n,space,NA,663,663,2444,NA,2,legacy,1024,2,48000,-16,experiment,0,even,NA,NA,96886,101675,92399,147773,147173,147730,148448,149457,NA,NA,101675,66167,148695,147219,NA,47918,NA,NA,125014,47920,149907,NA,104120,147162,147773,Stroop CI,17,38753,19,yes,1280,GREEN
15,90,yes,90,20,1968,1968,#ffffff,no,practice,v;b;n;m,legacy,I have read and understood the information shown above,legacy,legacy,red,0,con,uniform,1,1,1,NA,0,0,0,0,0,16,16,16,16,16,0,0,5,0,16,16,0,0,NA,0,16,0,16,NA,0,16,16,Thu Dec  8 18:27:41 2016,The main experiment item,yes,v,IC_RSI2000.osexp,/Users/Muki/Documents/Labor/Bence Stroop,no,mono,no,18,no,black,no,Ok,NA,no,Male,800,legacy,C:/Users/User/Dropbox/Sussex/Consciousness and control/Exp 1 - stroop suggestion and PCE/Methods/Palfi_script/laptop_size/subject-14_CI.csv,legacy,Interactive Ising,3.0.7,0,v,v,space,NA,621,621,2444,NA,2,legacy,1024,2,48000,-16,experiment,0,even,NA,NA,96886,101675,92399,150585,149978,150537,151221,152230,NA,NA,101675,66167,151467,150022,NA,47918,NA,NA,125014,47920,152680,NA,104120,149967,150585,Stroop CI,18,39374,20,yes,1280,RED
14,90.47619048,yes,90.47619048,20,1902,1902,#ffffff,no,practice,v;b;n;m,legacy,I have read and understood the information shown above,legacy,legacy,red,0,con,uniform,1,1,1,NA,0,0,0,0,0,17,17,17,17,17,0,0,5,0,17,17,0,0,NA,0,17,0,17,NA,0,17,17,Thu Dec  8 18:27:41 2016,The main experiment item,yes,v,IC_RSI2000.osexp,/Users/Muki/Documents/Labor/Bence Stroop,no,mono,no,18,no,black,no,Ok,NA,no,Male,800,legacy,C:/Users/User/Dropbox/Sussex/Consciousness and control/Exp 1 - stroop suggestion and PCE/Methods/Palfi_script/laptop_size/subject-14_CI.csv,legacy,Interactive Ising,3.0.7,0,v,v,space,NA,587,587,2444,NA,2,legacy,1024,2,48000,-16,experiment,0,even,NA,NA,96886,101675,92399,153360,152761,153317,153960,154974,NA,NA,101675,66167,154208,152804,NA,47918,NA,NA,125014,47920,155425,NA,104120,152750,153360,Stroop CI,19,39961,21,yes,1280,RED
16,90.90909091,yes,90.90909091,20,1843,1843,#ffffff,no,practice,v;b;n;m,legacy,I have read and understood the information shown above,legacy,legacy,blue,0,con,uniform,1,1,1,NA,0,0,0,0,0,18,18,18,18,18,0,0,5,0,18,18,0,0,NA,0,18,0,18,NA,0,18,18,Thu Dec  8 18:27:41 2016,The main experiment item,yes,b,IC_RSI2000.osexp,/Users/Muki/Documents/Labor/Bence Stroop,no,mono,no,18,no,black,no,Ok,NA,no,Male,800,legacy,C:/Users/User/Dropbox/Sussex/Consciousness and control/Exp 1 - stroop suggestion and PCE/Methods/Palfi_script/laptop_size/subject-14_CI.csv,legacy,Interactive Ising,3.0.7,0,b,b,space,NA,594,594,2444,NA,2,legacy,1024,2,48000,-16,experiment,0,even,NA,NA,96886,101675,92399,156109,155508,156066,156715,157728,NA,NA,101675,66167,156962,155552,NA,47918,NA,NA,125014,47920,158178,NA,104120,155496,156109,Stroop CI,20,40555,22,yes,1280,BLUE
31,91.30434783,yes,91.30434783,20,1794,1794,#ffffff,no,practice,v;b;n;m,legacy,I have read and understood the information shown above,legacy,legacy,green,0,neutral,uniform,1,1,1,NA,0,0,0,0,0,19,19,19,19,19,0,0,5,0,19,19,0,0,NA,0,19,0,19,NA,0,19,19,Thu Dec  8 18:27:41 2016,The main experiment item,yes,n,IC_RSI2000.osexp,/Users/Muki/Documents/Labor/Bence Stroop,no,mono,no,18,no,black,no,Ok,NA,no,Male,800,legacy,C:/Users/User/Dropbox/Sussex/Consciousness and control/Exp 1 - stroop suggestion and PCE/Methods/Palfi_script/laptop_size/subject-14_CI.csv,legacy,Interactive Ising,3.0.7,0,n,n,space,NA,709,709,2444,NA,2,legacy,1024,2,48000,-16,experiment,0,even,NA,NA,96886,101675,92399,158878,158276,158834,159599,160609,NA,NA,101675,66167,159845,158322,NA,47918,NA,NA,125014,47920,161059,NA,104120,158265,158878,Stroop CI,21,41264,23,yes,1280,LOT
10,91.66666667,yes,91.66666667,20,1752,1752,#ffffff,no,practice,v;b;n;m,legacy,I have read and understood the information shown above,legacy,legacy,#ffef36,0,inc,uniform,1,1,1,NA,0,0,0,0,0,20,20,20,20,20,0,0,5,0,20,20,0,0,NA,0,20,0,20,NA,0,20,20,Thu Dec  8 18:27:41 2016,The main experiment item,yes,m,IC_RSI2000.osexp,/Users/Muki/Documents/Labor/Bence Stroop,no,mono,no,18,no,black,no,Ok,NA,no,Male,800,legacy,C:/Users/User/Dropbox/Sussex/Consciousness and control/Exp 1 - stroop suggestion and PCE/Methods/Palfi_script/laptop_size/subject-14_CI.csv,legacy,Interactive Ising,3.0.7,0,m,m,space,NA,796,796,2444,NA,2,legacy,1024,2,48000,-16,experiment,0,even,NA,NA,96886,101675,92399,161739,161136,161695,162547,163558,NA,NA,101675,66167,162794,161183,NA,47918,NA,NA,125014,47920,164008,NA,104120,161125,161739,Stroop CI,22,42060,24,yes,1280,RED
8,92,yes,92,20,1712,1712,#ffffff,no,practice,v;b;n;m,legacy,I have read and understood the information shown above,legacy,legacy,green,0,inc,uniform,1,1,1,NA,0,0,0,0,0,21,21,21,21,21,0,0,5,0,21,21,0,0,NA,0,21,0,21,NA,0,21,21,Thu Dec  8 18:27:41 2016,The main experiment item,yes,n,IC_RSI2000.osexp,/Users/Muki/Documents/Labor/Bence Stroop,no,mono,no,18,no,black,no,Ok,NA,no,Male,800,legacy,C:/Users/User/Dropbox/Sussex/Consciousness and control/Exp 1 - stroop suggestion and PCE/Methods/Palfi_script/laptop_size/subject-14_CI.csv,legacy,Interactive Ising,3.0.7,0,n,n,space,NA,742,742,2444,NA,2,legacy,1024,2,48000,-16,experiment,0,even,NA,NA,96886,101675,92399,164688,164084,164645,165441,166452,NA,NA,101675,66167,165687,164127,NA,47918,NA,NA,125014,47920,166902,NA,104120,164073,164688,Stroop CI,23,42802,25,yes,1280,BLUE
32,92.30769231,yes,92.30769231,20,1667,1667,#ffffff,no,practice,v;b;n;m,legacy,I have read and understood the information shown above,legacy,legacy,green,0,neutral,uniform,1,1,1,NA,0,0,0,0,0,22,22,22,22,22,0,0,5,0,22,22,0,0,NA,0,22,0,22,NA,0,22,22,Thu Dec  8 18:27:41 2016,The main experiment item,yes,n,IC_RSI2000.osexp,/Users/Muki/Documents/Labor/Bence Stroop,no,mono,no,18,no,black,no,Ok,NA,no,Male,800,legacy,C:/Users/User/Dropbox/Sussex/Consciousness and control/Exp 1 - stroop suggestion and PCE/Methods/Palfi_script/laptop_size/subject-14_CI.csv,legacy,Interactive Ising,3.0.7,0,n,n,space,NA,544,544,2444,NA,2,legacy,1024,2,48000,-16,experiment,0,even,NA,NA,96886,101675,92399,167577,166979,167534,168133,169145,NA,NA,101675,66167,168381,167022,NA,47918,NA,NA,125014,47920,169596,NA,104120,166969,167577,Stroop CI,24,43346,26,yes,1280,SHIP
9,88.88888889,yes,88.88888889,20,1631,1631,#ffffff,no,practice,v;b;n;m,legacy,I have read and understood the information shown above,legacy,legacy,green,0,inc,uniform,0,0,1,NA,0,0,0,0,0,23,23,23,23,23,0,0,5,0,23,23,0,0,NA,0,23,0,23,NA,0,23,23,Thu Dec  8 18:27:41 2016,The main experiment item,yes,n,IC_RSI2000.osexp,/Users/Muki/Documents/Labor/Bence Stroop,no,mono,no,18,no,black,no,Ok,NA,no,Male,800,legacy,C:/Users/User/Dropbox/Sussex/Consciousness and control/Exp 1 - stroop suggestion and PCE/Methods/Palfi_script/laptop_size/subject-14_CI.csv,legacy,Interactive Ising,3.0.7,0,m,m,space,NA,691,691,2444,NA,2,legacy,1024,2,48000,-16,experiment,0,even,NA,NA,96886,101675,92399,170275,169677,170232,170977,171986,NA,NA,101675,66167,168381,169720,NA,47918,NA,NA,171224,47920,172436,NA,104120,169666,170275,Stroop CI,24,44037,27,yes,1280,YELLOW
25,89.28571429,yes,89.28571429,20,1594,1594,#ffffff,no,practice,v;b;n;m,legacy,I have read and understood the information shown above,legacy,legacy,red,0,neutral,uniform,1,1,1,NA,0,0,0,0,0,24,24,24,24,24,0,0,5,0,24,24,0,0,NA,0,24,0,24,NA,0,24,24,Thu Dec  8 18:27:41 2016,The main experiment item,yes,v,IC_RSI2000.osexp,/Users/Muki/Documents/Labor/Bence Stroop,no,mono,no,18,no,black,no,Ok,NA,no,Male,800,legacy,C:/Users/User/Dropbox/Sussex/Consciousness and control/Exp 1 - stroop suggestion and PCE/Methods/Palfi_script/laptop_size/subject-14_CI.csv,legacy,Interactive Ising,3.0.7,0,v,v,space,NA,620,620,2444,NA,2,legacy,1024,2,48000,-16,experiment,0,even,NA,NA,96886,101675,92399,173108,172510,173065,173739,174749,NA,NA,101675,66167,173987,172554,NA,47918,NA,NA,171224,47920,175200,NA,104120,172499,173108,Stroop CI,25,44657,28,yes,1280,SHIP
6,89.65517241,yes,89.65517241,20,1564,1564,#ffffff,no,practice,v;b;n;m,legacy,I have read and understood the information shown above,legacy,legacy,blue,0,inc,uniform,1,1,1,NA,0,0,0,0,0,25,25,25,25,25,0,0,5,0,25,25,0,0,NA,0,25,0,25,NA,0,25,25,Thu Dec  8 18:27:41 2016,The main experiment item,yes,b,IC_RSI2000.osexp,/Users/Muki/Documents/Labor/Bence Stroop,no,mono,no,18,no,black,no,Ok,NA,no,Male,800,legacy,C:/Users/User/Dropbox/Sussex/Consciousness and control/Exp 1 - stroop suggestion and PCE/Methods/Palfi_script/laptop_size/subject-14_CI.csv,legacy,Interactive Ising,3.0.7,0,b,b,space,NA,713,713,2444,NA,2,legacy,1024,2,48000,-16,experiment,0,even,NA,NA,96886,101675,92399,175873,175271,175826,176597,177612,NA,NA,101675,66167,176846,175314,NA,47918,NA,NA,171224,47920,178062,NA,104120,175259,175872,Stroop CI,26,45370,29,yes,1280,YELLOW
13,90,yes,90,20,1530,1530,#ffffff,no,practice,v;b;n;m,legacy,I have read and understood the information shown above,legacy,legacy,red,0,con,uniform,1,1,1,NA,0,0,0,0,0,26,26,26,26,26,0,0,5,0,26,26,0,0,NA,0,26,0,26,NA,0,26,26,Thu Dec  8 18:27:41 2016,The main experiment item,yes,v,IC_RSI2000.osexp,/Users/Muki/Documents/Labor/Bence Stroop,no,mono,no,18,no,black,no,Ok,NA,no,Male,800,legacy,C:/Users/User/Dropbox/Sussex/Consciousness and control/Exp 1 - stroop suggestion and PCE/Methods/Palfi_script/laptop_size/subject-14_CI.csv,legacy,Interactive Ising,3.0.7,0,v,v,space,NA,533,533,2444,NA,2,legacy,1024,2,48000,-16,experiment,0,even,NA,NA,96886,101675,92399,178741,178136,178698,179285,180294,NA,NA,101675,66167,179532,178186,NA,47918,NA,NA,171224,47920,180744,NA,104120,178126,178741,Stroop CI,27,45903,30,yes,1280,RED
5,87.09677419,yes,87.09677419,20,1501,1501,#ffffff,no,practice,v;b;n;m,legacy,I have read and understood the information shown above,legacy,legacy,blue,0,inc,uniform,0,0,1,NA,0,0,0,0,0,27,27,27,27,27,0,0,5,0,27,27,0,0,NA,0,27,0,27,NA,0,27,27,Thu Dec  8 18:27:41 2016,The main experiment item,yes,b,IC_RSI2000.osexp,/Users/Muki/Documents/Labor/Bence Stroop,no,mono,no,18,no,black,no,Ok,NA,no,Male,800,legacy,C:/Users/User/Dropbox/Sussex/Consciousness and control/Exp 1 - stroop suggestion and PCE/Methods/Palfi_script/laptop_size/subject-14_CI.csv,legacy,Interactive Ising,3.0.7,0,v,v,space,NA,631,631,2444,NA,2,legacy,1024,2,48000,-16,experiment,0,even,NA,NA,96886,101675,92399,181423,180822,181377,182070,183082,NA,NA,101675,66167,179532,180866,NA,47918,NA,NA,182316,47920,183532,NA,104120,180811,181423,Stroop CI,27,46534,31,yes,1280,GREEN
30,87.5,yes,87.5,20,1474,1474,#ffffff,no,practice,v;b;n;m,legacy,I have read and understood the information shown above,legacy,legacy,blue,0,neutral,uniform,1,1,1,NA,0,0,0,0,0,28,28,28,28,28,0,0,5,0,28,28,0,0,NA,0,28,0,28,NA,0,28,28,Thu Dec  8 18:27:41 2016,The main experiment item,yes,b,IC_RSI2000.osexp,/Users/Muki/Documents/Labor/Bence Stroop,no,mono,no,18,no,black,no,Ok,NA,no,Male,800,legacy,C:/Users/User/Dropbox/Sussex/Consciousness and control/Exp 1 - stroop suggestion and PCE/Methods/Palfi_script/laptop_size/subject-14_CI.csv,legacy,Interactive Ising,3.0.7,0,b,b,space,NA,649,649,2444,NA,2,legacy,1024,2,48000,-16,experiment,0,even,NA,NA,96886,101675,92399,184213,183610,184165,184874,185883,NA,NA,101675,66167,185120,183653,NA,47918,NA,NA,182316,47920,186333,NA,104120,183598,184213,Stroop CI,28,47183,32,yes,1280,FLOWER
34,87.87878788,yes,87.87878788,20,1448,1448,#ffffff,no,practice,v;b;n;m,legacy,I have read and understood the information shown above,legacy,legacy,#ffef36,0,neutral,uniform,1,1,1,NA,0,0,0,0,0,29,29,29,29,29,0,0,5,0,29,29,0,0,NA,0,29,0,29,NA,0,29,29,Thu Dec  8 18:27:41 2016,The main experiment item,yes,m,IC_RSI2000.osexp,/Users/Muki/Documents/Labor/Bence Stroop,no,mono,no,18,no,black,no,Ok,NA,no,Male,800,legacy,C:/Users/User/Dropbox/Sussex/Consciousness and control/Exp 1 - stroop suggestion and PCE/Methods/Palfi_script/laptop_size/subject-14_CI.csv,legacy,Interactive Ising,3.0.7,0,m,m,space,NA,616,616,2444,NA,2,legacy,1024,2,48000,-16,experiment,0,even,NA,NA,96886,101675,92399,187015,186417,186972,187643,188658,NA,NA,101675,66167,187892,186460,NA,47918,NA,NA,182316,47920,189108,NA,104120,186407,187015,Stroop CI,29,47799,33,yes,1280,LOT
12,88.23529412,yes,88.23529412,20,1426,1426,#ffffff,no,practice,v;b;n;m,legacy,I have read and understood the information shown above,legacy,legacy,#ffef36,0,inc,uniform,1,1,1,NA,0,0,0,0,0,30,30,30,30,30,0,0,5,0,30,30,0,0,NA,0,30,0,30,NA,0,30,30,Thu Dec  8 18:27:41 2016,The main experiment item,yes,m,IC_RSI2000.osexp,/Users/Muki/Documents/Labor/Bence Stroop,no,mono,no,18,no,black,no,Ok,NA,no,Male,800,legacy,C:/Users/User/Dropbox/Sussex/Consciousness and control/Exp 1 - stroop suggestion and PCE/Methods/Palfi_script/laptop_size/subject-14_CI.csv,legacy,Interactive Ising,3.0.7,0,m,m,space,NA,706,706,2444,NA,2,legacy,1024,2,48000,-16,experiment,0,even,NA,NA,96886,101675,92399,189782,189180,189739,190500,191509,NA,NA,101675,66167,190747,189223,NA,47918,NA,NA,182316,47920,191960,NA,104120,189169,189782,Stroop CI,30,48505,34,yes,1280,GREEN
4,88.57142857,yes,88.57142857,20,1408,1408,#ffffff,no,practice,v;b;n;m,legacy,I have read and understood the information shown above,legacy,legacy,blue,0,inc,uniform,1,1,1,NA,0,0,0,0,0,31,31,31,31,31,0,0,5,0,31,31,0,0,NA,0,31,0,31,NA,0,31,31,Thu Dec  8 18:27:41 2016,The main experiment item,yes,b,IC_RSI2000.osexp,/Users/Muki/Documents/Labor/Bence Stroop,no,mono,no,18,no,black,no,Ok,NA,no,Male,800,legacy,C:/Users/User/Dropbox/Sussex/Consciousness and control/Exp 1 - stroop suggestion and PCE/Methods/Palfi_script/laptop_size/subject-14_CI.csv,legacy,Interactive Ising,3.0.7,0,b,b,space,NA,790,790,2444,NA,2,legacy,1024,2,48000,-16,experiment,0,even,NA,NA,96886,101675,92399,192648,192046,192602,193449,194465,NA,NA,101675,66167,193699,192090,NA,47918,NA,NA,182316,47920,194915,NA,104120,192035,192648,Stroop CI,31,49295,35,yes,1280,RED
29,88.88888889,yes,88.88888889,20,1386,1386,#ffffff,no,practice,v;b;n;m,legacy,I have read and understood the information shown above,legacy,legacy,blue,0,neutral,uniform,1,1,1,NA,0,0,0,0,0,32,32,32,32,32,0,0,5,0,32,32,0,0,NA,0,32,0,32,NA,0,32,32,Thu Dec  8 18:27:41 2016,The main experiment item,yes,b,IC_RSI2000.osexp,/Users/Muki/Documents/Labor/Bence Stroop,no,mono,no,18,no,black,no,Ok,NA,no,Male,800,legacy,C:/Users/User/Dropbox/Sussex/Consciousness and control/Exp 1 - stroop suggestion and PCE/Methods/Palfi_script/laptop_size/subject-14_CI.csv,legacy,Interactive Ising,3.0.7,0,b,b,space,NA,615,615,2444,NA,2,legacy,1024,2,48000,-16,experiment,0,even,NA,NA,96886,101675,92399,195605,195000,195556,196231,197242,NA,NA,101675,66167,196479,195044,NA,47918,NA,NA,182316,47920,197692,NA,104120,194986,195605,Stroop CI,32,49910,36,yes,1280,KNIFE
23,89.18918919,yes,89.18918919,20,1364,1364,#ffffff,no,practice,v;b;n;m,legacy,I have read and understood the information shown above,legacy,legacy,#ffef36,0,con,uniform,1,1,1,NA,0,0,0,0,0,33,33,33,33,33,0,0,5,0,33,33,0,0,NA,0,33,0,33,NA,0,33,33,Thu Dec  8 18:27:41 2016,The main experiment item,yes,m,IC_RSI2000.osexp,/Users/Muki/Documents/Labor/Bence Stroop,no,mono,no,18,no,black,no,Ok,NA,no,Male,800,legacy,C:/Users/User/Dropbox/Sussex/Consciousness and control/Exp 1 - stroop suggestion and PCE/Methods/Palfi_script/laptop_size/subject-14_CI.csv,legacy,Interactive Ising,3.0.7,0,m,m,space,NA,570,570,2444,NA,2,legacy,1024,2,48000,-16,experiment,0,even,NA,NA,96886,101675,92399,198448,197846,198404,199030,200041,NA,NA,101675,66167,199277,197890,NA,47918,NA,NA,182316,47920,200491,NA,104120,197834,198448,Stroop CI,33,50480,37,yes,1280,YELLOW
27,89.47368421,yes,89.47368421,20,1346,1346,#ffffff,no,practice,v;b;n;m,legacy,I have read and understood the information shown above,legacy,legacy,red,0,neutral,uniform,1,1,1,NA,0,0,0,0,0,34,34,34,34,34,0,0,5,0,34,34,0,0,NA,0,34,0,34,NA,0,34,34,Thu Dec  8 18:27:41 2016,The main experiment item,yes,v,IC_RSI2000.osexp,/Users/Muki/Documents/Labor/Bence Stroop,no,mono,no,18,no,black,no,Ok,NA,no,Male,800,legacy,C:/Users/User/Dropbox/Sussex/Consciousness and control/Exp 1 - stroop suggestion and PCE/Methods/Palfi_script/laptop_size/subject-14_CI.csv,legacy,Interactive Ising,3.0.7,0,v,v,space,NA,701,701,2444,NA,2,legacy,1024,2,48000,-16,experiment,0,even,NA,NA,96886,101675,92399,201148,200550,201105,201860,202873,NA,NA,101675,66167,202108,200594,NA,47918,NA,NA,182316,47920,203324,NA,104120,200540,201148,Stroop CI,34,51181,38,yes,1280,FLOWER
3,89.74358974,yes,89.74358974,20,1328,1328,#ffffff,no,practice,v;b;n;m,legacy,I have read and understood the information shown above,legacy,legacy,red,0,inc,uniform,1,1,1,NA,0,0,0,0,0,35,35,35,35,35,0,0,5,0,35,35,0,0,NA,0,35,0,35,NA,0,35,35,Thu Dec  8 18:27:41 2016,The main experiment item,yes,v,IC_RSI2000.osexp,/Users/Muki/Documents/Labor/Bence Stroop,no,mono,no,18,no,black,no,Ok,NA,no,Male,800,legacy,C:/Users/User/Dropbox/Sussex/Consciousness and control/Exp 1 - stroop suggestion and PCE/Methods/Palfi_script/laptop_size/subject-14_CI.csv,legacy,Interactive Ising,3.0.7,0,v,v,space,NA,639,639,2444,NA,2,legacy,1024,2,48000,-16,experiment,0,even,NA,NA,96886,101675,92399,203990,203390,203946,204641,205655,NA,NA,101675,66167,204892,203434,NA,47918,NA,NA,182316,47920,206105,NA,104120,203379,203990,Stroop CI,35,51820,39,yes,1280,YELLOW
6,90.24390244,yes,90.24390244,20,1571,1571,#ffffff,no,I,v;b;n;m,legacy,I have read and understood the information shown above,legacy,legacy,red,0,inc,uniform,1,1,1,NA,0,0,0,0,0,36,36,36,36,36,0,0,5,0,36,36,0,0,NA,0,36,0,36,NA,0,36,36,Thu Dec  8 18:27:41 2016,The main experiment item,yes,v,IC_RSI2000.osexp,/Users/Muki/Documents/Labor/Bence Stroop,no,mono,no,18,no,black,no,Ok,NA,no,Male,800,legacy,C:/Users/User/Dropbox/Sussex/Consciousness and control/Exp 1 - stroop suggestion and PCE/Methods/Palfi_script/laptop_size/subject-14_CI.csv,legacy,Interactive Ising,3.0.7,0,v,v,space,NA,714,714,11911,NA,2,legacy,1024,2,48000,-16,experiment,0,even,NA,218038,96886,101675,92399,218696,218096,218650,219421,220434,206126,NA,206126,66167,219668,218139,NA,47918,NA,NA,182316,47920,220884,NA,104120,218084,218696,Stroop CI,37,64445,41,yes,1280,BLUE
81,90.47619048,yes,90.47619048,20,1551,1551,#ffffff,no,I,v;b;n;m,legacy,I have read and understood the information shown above,legacy,legacy,#ffef36,0,inc,uniform,1,1,1,NA,0,0,0,0,0,37,37,37,37,37,0,0,5,0,37,37,0,0,NA,0,37,0,37,NA,0,37,37,Thu Dec  8 18:27:41 2016,The main experiment item,yes,m,IC_RSI2000.osexp,/Users/Muki/Documents/Labor/Bence Stroop,no,mono,no,18,no,black,no,Ok,NA,no,Male,800,legacy,C:/Users/User/Dropbox/Sussex/Consciousness and control/Exp 1 - stroop suggestion and PCE/Methods/Palfi_script/laptop_size/subject-14_CI.csv,legacy,Interactive Ising,3.0.7,0,m,m,space,NA,718,718,11911,NA,2,legacy,1024,2,48000,-16,experiment,0,even,NA,218038,96886,101675,92399,221564,220958,221517,222293,223304,206126,NA,206126,66167,222539,221004,NA,47918,NA,NA,182316,47920,223754,NA,104120,220946,221564,Stroop CI,38,65163,42,yes,1280,BLUE
96,90.69767442,yes,90.69767442,20,1534,1534,#ffffff,no,I,v;b;n;m,legacy,I have read and understood the information shown above,legacy,legacy,#ffef36,0,inc,uniform,1,1,1,NA,0,0,0,0,0,38,38,38,38,38,0,0,5,0,38,38,0,0,NA,0,38,0,38,NA,0,38,38,Thu Dec  8 18:27:41 2016,The main experiment item,yes,m,IC_RSI2000.osexp,/Users/Muki/Documents/Labor/Bence Stroop,no,mono,no,18,no,black,no,Ok,NA,no,Male,800,legacy,C:/Users/User/Dropbox/Sussex/Consciousness and control/Exp 1 - stroop suggestion and PCE/Methods/Palfi_script/laptop_size/subject-14_CI.csv,legacy,Interactive Ising,3.0.7,0,m,m,space,NA,800,800,11911,NA,2,legacy,1024,2,48000,-16,experiment,0,even,NA,218038,96886,101675,92399,224428,223822,224382,225239,226255,206126,NA,206126,66167,225492,223866,NA,47918,NA,NA,182316,47920,226706,NA,104120,223811,224428,Stroop CI,39,65963,43,yes,1280,GREEN
117,90.90909091,yes,90.90909091,20,1519,1519,#ffffff,no,I,v;b;n;m,legacy,I have read and understood the information shown above,legacy,legacy,green,0,neutral,uniform,1,1,1,NA,0,0,0,0,0,39,39,39,39,39,0,0,5,0,39,39,0,0,NA,0,39,0,39,NA,0,39,39,Thu Dec  8 18:27:41 2016,The main experiment item,yes,n,IC_RSI2000.osexp,/Users/Muki/Documents/Labor/Bence Stroop,no,mono,no,18,no,black,no,Ok,NA,no,Male,800,legacy,C:/Users/User/Dropbox/Sussex/Consciousness and control/Exp 1 - stroop suggestion and PCE/Methods/Palfi_script/laptop_size/subject-14_CI.csv,legacy,Interactive Ising,3.0.7,0,n,n,space,NA,902,902,11911,NA,2,legacy,1024,2,48000,-16,experiment,0,even,NA,218038,96886,101675,92399,227381,226776,227338,228294,229308,206126,NA,206126,66167,228542,226825,NA,47918,NA,NA,182316,47920,229758,NA,104120,226765,227381,Stroop CI,40,66865,44,yes,1280,FLOWER
22,91.11111111,yes,91.11111111,20,1503,1503,#ffffff,no,I,v;b;n;m,legacy,I have read and understood the information shown above,legacy,legacy,red,0,inc,uniform,1,1,1,NA,0,0,0,0,0,40,40,40,40,40,0,0,5,0,40,40,0,0,NA,0,40,0,40,NA,0,40,40,Thu Dec  8 18:27:41 2016,The main experiment item,yes,v,IC_RSI2000.osexp,/Users/Muki/Documents/Labor/Bence Stroop,no,mono,no,18,no,black,no,Ok,NA,no,Male,800,legacy,C:/Users/User/Dropbox/Sussex/Consciousness and control/Exp 1 - stroop suggestion and PCE/Methods/Palfi_script/laptop_size/subject-14_CI.csv,legacy,Interactive Ising,3.0.7,0,v,v,space,NA,780,780,11911,NA,2,legacy,1024,2,48000,-16,experiment,0,even,NA,218038,96886,101675,92399,230434,229827,230386,231226,232236,206126,NA,206126,66167,231472,229870,NA,47918,NA,NA,182316,47920,232686,NA,104120,229817,230434,Stroop CI,41,67645,45,yes,1280,YELLOW
101,91.30434783,yes,91.30434783,20,1483,1483,#ffffff,no,I,v;b;n;m,legacy,I have read and understood the information shown above,legacy,legacy,blue,0,con,uniform,1,1,1,NA,0,0,0,0,0,41,41,41,41,41,0,0,5,0,41,41,0,0,NA,0,41,0,41,NA,0,41,41,Thu Dec  8 18:27:41 2016,The main experiment item,yes,b,IC_RSI2000.osexp,/Users/Muki/Documents/Labor/Bence Stroop,no,mono,no,18,no,black,no,Ok,NA,no,Male,800,legacy,C:/Users/User/Dropbox/Sussex/Consciousness and control/Exp 1 - stroop suggestion and PCE/Methods/Palfi_script/laptop_size/subject-14_CI.csv,legacy,Interactive Ising,3.0.7,0,b,b,space,NA,582,582,11911,NA,2,legacy,1024,2,48000,-16,experiment,0,even,NA,218038,96886,101675,92399,233362,232757,233314,233955,234965,206126,NA,206126,66167,234201,232803,NA,47918,NA,NA,182316,47920,235415,NA,104120,232746,233362,Stroop CI,42,68227,46,yes,1280,BLUE
114,91.4893617,yes,91.4893617,20,1463,1463,#ffffff,no,I,v;b;n;m,legacy,I have read and understood the information shown above,legacy,legacy,blue,0,neutral,uniform,1,1,1,NA,0,0,0,0,0,42,42,42,42,42,0,0,5,0,42,42,0,0,NA,0,42,0,42,NA,0,42,42,Thu Dec  8 18:27:41 2016,The main experiment item,yes,b,IC_RSI2000.osexp,/Users/Muki/Documents/Labor/Bence Stroop,no,mono,no,18,no,black,no,Ok,NA,no,Male,800,legacy,C:/Users/User/Dropbox/Sussex/Consciousness and control/Exp 1 - stroop suggestion and PCE/Methods/Palfi_script/laptop_size/subject-14_CI.csv,legacy,Interactive Ising,3.0.7,0,b,b,space,NA,537,537,11911,NA,2,legacy,1024,2,48000,-16,experiment,0,even,NA,218038,96886,101675,92399,236079,235481,236036,236628,237641,206126,NA,206126,66167,236878,235525,NA,47918,NA,NA,182316,47920,238091,NA,104120,235471,236079,Stroop CI,43,68764,47,yes,1280,FLOWER
79,91.66666667,yes,91.66666667,20,1446,1446,#ffffff,no,I,v;b;n;m,legacy,I have read and understood the information shown above,legacy,legacy,#ffef36,0,inc,uniform,1,1,1,NA,0,0,0,0,0,43,43,43,43,43,0,0,5,0,43,43,0,0,NA,0,43,0,43,NA,0,43,43,Thu Dec  8 18:27:41 2016,The main experiment item,yes,m,IC_RSI2000.osexp,/Users/Muki/Documents/Labor/Bence Stroop,no,mono,no,18,no,black,no,Ok,NA,no,Male,800,legacy,C:/Users/User/Dropbox/Sussex/Consciousness and control/Exp 1 - stroop suggestion and PCE/Methods/Palfi_script/laptop_size/subject-14_CI.csv,legacy,Interactive Ising,3.0.7,0,m,m,space,NA,678,678,11911,NA,2,legacy,1024,2,48000,-16,experiment,0,even,NA,218038,96886,101675,92399,238758,238156,238714,239448,240458,206126,NA,206126,66167,239694,238202,NA,47918,NA,NA,182316,47920,240909,NA,104120,238145,238758,Stroop CI,44,69442,48,yes,1280,RED
80,91.83673469,yes,91.83673469,20,1432,1432,#ffffff,no,I,v;b;n;m,legacy,I have read and understood the information shown above,legacy,legacy,#ffef36,0,inc,uniform,1,1,1,NA,0,0,0,0,0,44,44,44,44,44,0,0,5,0,44,44,0,0,NA,0,44,0,44,NA,0,44,44,Thu Dec  8 18:27:41 2016,The main experiment item,yes,m,IC_RSI2000.osexp,/Users/Muki/Documents/Labor/Bence Stroop,no,mono,no,18,no,black,no,Ok,NA,no,Male,800,legacy,C:/Users/User/Dropbox/Sussex/Consciousness and control/Exp 1 - stroop suggestion and PCE/Methods/Palfi_script/laptop_size/subject-14_CI.csv,legacy,Interactive Ising,3.0.7,0,m,m,space,NA,764,764,11911,NA,2,legacy,1024,2,48000,-16,experiment,0,even,NA,218038,96886,101675,92399,241581,240976,241536,242357,243375,206126,NA,206126,66167,242606,241019,NA,47918,NA,NA,182316,47920,243825,NA,104120,240966,241580,Stroop CI,45,70206,49,yes,1280,RED
109,92,yes,92,20,1434,1434,#ffffff,no,I,v;b;n;m,legacy,I have read and understood the information shown above,legacy,legacy,red,0,neutral,uniform,1,1,1,NA,0,0,0,0,0,45,45,45,45,45,0,0,5,0,45,45,0,0,NA,0,45,0,45,NA,0,45,45,Thu Dec  8 18:27:41 2016,The main experiment item,yes,v,IC_RSI2000.osexp,/Users/Muki/Documents/Labor/Bence Stroop,no,mono,no,18,no,black,no,Ok,NA,no,Male,800,legacy,C:/Users/User/Dropbox/Sussex/Consciousness and control/Exp 1 - stroop suggestion and PCE/Methods/Palfi_script/laptop_size/subject-14_CI.csv,legacy,Interactive Ising,3.0.7,0,v,v,space,NA,1541,1541,11911,NA,2,legacy,1024,2,48000,-16,experiment,0,even,NA,218038,96886,101675,92399,244496,243898,244453,246049,247065,206126,NA,206126,66167,246299,243941,NA,47918,NA,NA,182316,47920,247515,NA,104120,243888,244496,Stroop CI,46,71747,50,yes,1280,SHIP
8,92.15686275,yes,92.15686275,20,1421,1421,#ffffff,no,I,v;b;n;m,legacy,I have read and understood the information shown above,legacy,legacy,red,0,inc,uniform,1,1,1,NA,0,0,0,0,0,46,46,46,46,46,0,0,5,0,46,46,0,0,NA,0,46,0,46,NA,0,46,46,Thu Dec  8 18:27:41 2016,The main experiment item,yes,v,IC_RSI2000.osexp,/Users/Muki/Documents/Labor/Bence Stroop,no,mono,no,18,no,black,no,Ok,NA,no,Male,800,legacy,C:/Users/User/Dropbox/Sussex/Consciousness and control/Exp 1 - stroop suggestion and PCE/Methods/Palfi_script/laptop_size/subject-14_CI.csv,legacy,Interactive Ising,3.0.7,0,v,v,space,NA,758,758,11911,NA,2,legacy,1024,2,48000,-16,experiment,0,even,NA,218038,96886,101675,92399,248197,247594,248149,248967,249981,206126,NA,206126,66167,249216,247637,NA,47918,NA,NA,182316,47920,250432,NA,104120,247582,248197,Stroop CI,47,72505,51,yes,1280,BLUE
48,92.30769231,yes,92.30769231,20,1406,1406,#ffffff,no,I,v;b;n;m,legacy,I have read and understood the information shown above,legacy,legacy,blue,0,inc,uniform,1,1,1,NA,0,0,0,0,0,47,47,47,47,47,0,0,5,0,47,47,0,0,NA,0,47,0,47,NA,0,47,47,Thu Dec  8 18:27:41 2016,The main experiment item,yes,b,IC_RSI2000.osexp,/Users/Muki/Documents/Labor/Bence Stroop,no,mono,no,18,no,black,no,Ok,NA,no,Male,800,legacy,C:/Users/User/Dropbox/Sussex/Consciousness and control/Exp 1 - stroop suggestion and PCE/Methods/Palfi_script/laptop_size/subject-14_CI.csv,legacy,Interactive Ising,3.0.7,0,b,b,space,NA,658,658,11911,NA,2,legacy,1024,2,48000,-16,experiment,0,even,NA,218038,96886,101675,92399,251120,250518,251076,251789,252800,206126,NA,206126,66167,252038,250564,NA,47918,NA,NA,182316,47920,253251,NA,104120,250507,251120,Stroop CI,48,73163,52,yes,1280,YELLOW
17,92.45283019,yes,92.45283019,20,1395,1395,#ffffff,no,I,v;b;n;m,legacy,I have read and understood the information shown above,legacy,legacy,red,0,inc,uniform,1,1,1,NA,0,0,0,0,0,48,48,48,48,48,0,0,5,0,48,48,0,0,NA,0,48,0,48,NA,0,48,48,Thu Dec  8 18:27:41 2016,The main experiment item,yes,v,IC_RSI2000.osexp,/Users/Muki/Documents/Labor/Bence Stroop,no,mono,no,18,no,black,no,Ok,NA,no,Male,800,legacy,C:/Users/User/Dropbox/Sussex/Consciousness and control/Exp 1 - stroop suggestion and PCE/Methods/Palfi_script/laptop_size/subject-14_CI.csv,legacy,Interactive Ising,3.0.7,0,v,v,space,NA,793,793,11911,NA,2,legacy,1024,2,48000,-16,experiment,0,even,NA,218038,96886,101675,92399,253923,253326,253880,254728,255742,206126,NA,206126,66167,254976,253369,NA,47918,NA,NA,182316,47920,256192,NA,104120,253316,253923,Stroop CI,49,73956,53,yes,1280,YELLOW
77,92.59259259,yes,92.59259259,20,1381,1381,#ffffff,no,I,v;b;n;m,legacy,I have read and understood the information shown above,legacy,legacy,#ffef36,0,inc,uniform,1,1,1,NA,0,0,0,0,0,49,49,49,49,49,0,0,5,0,49,49,0,0,NA,0,49,0,49,NA,0,49,49,Thu Dec  8 18:27:41 2016,The main experiment item,yes,m,IC_RSI2000.osexp,/Users/Muki/Documents/Labor/Bence Stroop,no,mono,no,18,no,black,no,Ok,NA,no,Male,800,legacy,C:/Users/User/Dropbox/Sussex/Consciousness and control/Exp 1 - stroop suggestion and PCE/Methods/Palfi_script/laptop_size/subject-14_CI.csv,legacy,Interactive Ising,3.0.7,0,m,m,space,NA,632,632,11911,NA,2,legacy,1024,2,48000,-16,experiment,0,even,NA,218038,96886,101675,92399,256883,256279,256836,257526,258541,206126,NA,206126,66167,257775,256322,NA,47918,NA,NA,182316,47920,258991,NA,104120,256268,256882,Stroop CI,50,74588,54,yes,1280,RED
56,92.72727273,yes,92.72727273,20,1368,1368,#ffffff,no,I,v;b;n;m,legacy,I have read and understood the information shown above,legacy,legacy,green,0,inc,uniform,1,1,1,NA,0,0,0,0,0,50,50,50,50,50,0,0,5,0,50,50,0,0,NA,0,50,0,50,NA,0,50,50,Thu Dec  8 18:27:41 2016,The main experiment item,yes,n,IC_RSI2000.osexp,/Users/Muki/Documents/Labor/Bence Stroop,no,mono,no,18,no,black,no,Ok,NA,no,Male,800,legacy,C:/Users/User/Dropbox/Sussex/Consciousness and control/Exp 1 - stroop suggestion and PCE/Methods/Palfi_script/laptop_size/subject-14_CI.csv,legacy,Interactive Ising,3.0.7,0,n,n,space,NA,659,659,11911,NA,2,legacy,1024,2,48000,-16,experiment,0,even,NA,218038,96886,101675,92399,259667,259067,259624,260338,261348,206126,NA,206126,66167,260585,259111,NA,47918,NA,NA,182316,47920,261798,NA,104120,259056,259667,Stroop CI,51,75247,55,yes,1280,RED
116,92.85714286,yes,92.85714286,20,1355,1355,#ffffff,no,I,v;b;n;m,legacy,I have read and understood the information shown above,legacy,legacy,green,0,neutral,uniform,1,1,1,NA,0,0,0,0,0,51,51,51,51,51,0,0,5,0,51,51,0,0,NA,0,51,0,51,NA,0,51,51,Thu Dec  8 18:27:41 2016,The main experiment item,yes,n,IC_RSI2000.osexp,/Users/Muki/Documents/Labor/Bence Stroop,no,mono,no,18,no,black,no,Ok,NA,no,Male,800,legacy,C:/Users/User/Dropbox/Sussex/Consciousness and control/Exp 1 - stroop suggestion and PCE/Methods/Palfi_script/laptop_size/subject-14_CI.csv,legacy,Interactive Ising,3.0.7,0,n,n,space,NA,649,649,11911,NA,2,legacy,1024,2,48000,-16,experiment,0,even,NA,218038,96886,101675,92399,262478,261875,262433,263138,264151,206126,NA,206126,66167,263386,261918,NA,47918,NA,NA,182316,47920,264601,NA,104120,261864,262477,Stroop CI,52,75896,56,yes,1280,SHIP
61,92.98245614,yes,92.98245614,20,1341,1341,#ffffff,no,I,v;b;n;m,legacy,I have read and understood the information shown above,legacy,legacy,green,0,inc,uniform,1,1,1,NA,0,0,0,0,0,52,52,52,52,52,0,0,5,0,52,52,0,0,NA,0,52,0,52,NA,0,52,52,Thu Dec  8 18:27:41 2016,The main experiment item,yes,n,IC_RSI2000.osexp,/Users/Muki/Documents/Labor/Bence Stroop,no,mono,no,18,no,black,no,Ok,NA,no,Male,800,legacy,C:/Users/User/Dropbox/Sussex/Consciousness and control/Exp 1 - stroop suggestion and PCE/Methods/Palfi_script/laptop_size/subject-14_CI.csv,legacy,Interactive Ising,3.0.7,0,n,n,space,NA,571,571,11911,NA,2,legacy,1024,2,48000,-16,experiment,0,even,NA,218038,96886,101675,92399,265279,264676,265232,265861,266871,206126,NA,206126,66167,266108,264719,NA,47918,NA,NA,182316,47920,267321,NA,104120,264664,265279,Stroop CI,53,76467,57,yes,1280,BLUE
92,93.10344828,yes,93.10344828,20,1329,1329,#ffffff,no,I,v;b;n;m,legacy,I have read and understood the information shown above,legacy,legacy,#ffef36,0,inc,uniform,1,1,1,NA,0,0,0,0,0,53,53,53,53,53,0,0,5,0,53,53,0,0,NA,0,53,0,53,NA,0,53,53,Thu Dec  8 18:27:41 2016,The main experiment item,yes,m,IC_RSI2000.osexp,/Users/Muki/Documents/Labor/Bence Stroop,no,mono,no,18,no,black,no,Ok,NA,no,Male,800,legacy,C:/Users/User/Dropbox/Sussex/Consciousness and control/Exp 1 - stroop suggestion and PCE/Methods/Palfi_script/laptop_size/subject-14_CI.csv,legacy,Interactive Ising,3.0.7,0,m,m,space,NA,660,660,11911,NA,2,legacy,1024,2,48000,-16,experiment,0,even,NA,218038,96886,101675,92399,267999,267399,267954,268670,269680,206126,NA,206126,66167,268916,267443,NA,47918,NA,NA,182316,47920,270131,NA,104120,267389,267999,Stroop CI,54,77127,58,yes,1280,GREEN
62,93.22033898,yes,93.22033898,20,1317,1317,#ffffff,no,I,v;b;n;m,legacy,I have read and understood the information shown above,legacy,legacy,green,0,inc,uniform,1,1,1,NA,0,0,0,0,0,54,54,54,54,54,0,0,5,0,54,54,0,0,NA,0,54,0,54,NA,0,54,54,Thu Dec  8 18:27:41 2016,The main experiment item,yes,n,IC_RSI2000.osexp,/Users/Muki/Documents/Labor/Bence Stroop,no,mono,no,18,no,black,no,Ok,NA,no,Male,800,legacy,C:/Users/User/Dropbox/Sussex/Consciousness and control/Exp 1 - stroop suggestion and PCE/Methods/Palfi_script/laptop_size/subject-14_CI.csv,legacy,Interactive Ising,3.0.7,0,n,n,space,NA,609,609,11911,NA,2,legacy,1024,2,48000,-16,experiment,0,even,NA,218038,96886,101675,92399,270808,270204,270761,271429,272441,206126,NA,206126,66167,271678,270247,NA,47918,NA,NA,182316,47920,272891,NA,104120,270193,270808,Stroop CI,55,77736,59,yes,1280,BLUE
119,93.33333333,yes,93.33333333,20,1307,1307,#ffffff,no,I,v;b;n;m,legacy,I have read and understood the information shown above,legacy,legacy,#ffef36,0,neutral,uniform,1,1,1,NA,0,0,0,0,0,55,55,55,55,55,0,0,5,0,55,55,0,0,NA,0,55,0,55,NA,0,55,55,Thu Dec  8 18:27:41 2016,The main experiment item,yes,m,IC_RSI2000.osexp,/Users/Muki/Documents/Labor/Bence Stroop,no,mono,no,18,no,black,no,Ok,NA,no,Male,800,legacy,C:/Users/User/Dropbox/Sussex/Consciousness and control/Exp 1 - stroop suggestion and PCE/Methods/Palfi_script/laptop_size/subject-14_CI.csv,legacy,Interactive Ising,3.0.7,0,m,m,space,NA,684,684,11911,NA,2,legacy,1024,2,48000,-16,experiment,0,even,NA,218038,96886,101675,92399,273566,272965,273521,274261,275270,206126,NA,206126,66167,274507,273009,NA,47918,NA,NA,182316,47920,275720,NA,104120,272954,273565,Stroop CI,56,78420,60,yes,1280,SHIP
65,91.80327869,yes,91.80327869,20,1296,1296,#ffffff,no,I,v;b;n;m,legacy,I have read and understood the information shown above,legacy,legacy,green,0,inc,uniform,0,0,1,NA,0,0,0,0,0,56,56,56,56,56,0,0,5,0,56,56,0,0,NA,0,56,0,56,NA,0,56,56,Thu Dec  8 18:27:41 2016,The main experiment item,yes,n,IC_RSI2000.osexp,/Users/Muki/Documents/Labor/Bence Stroop,no,mono,no,18,no,black,no,Ok,NA,no,Male,800,legacy,C:/Users/User/Dropbox/Sussex/Consciousness and control/Exp 1 - stroop suggestion and PCE/Methods/Palfi_script/laptop_size/subject-14_CI.csv,legacy,Interactive Ising,3.0.7,0,m,m,space,NA,693,693,11911,NA,2,legacy,1024,2,48000,-16,experiment,0,even,NA,218038,96886,101675,92399,276392,275791,276348,277097,278108,206126,NA,206126,66167,274507,275835,NA,47918,NA,NA,277346,47920,278559,NA,104120,275780,276392,Stroop CI,56,79113,61,yes,1280,YELLOW
83,91.93548387,yes,91.93548387,20,1288,1288,#ffffff,no,I,v;b;n;m,legacy,I have read and understood the information shown above,legacy,legacy,#ffef36,0,inc,uniform,1,1,1,NA,0,0,0,0,0,57,57,57,57,57,0,0,5,0,57,57,0,0,NA,0,57,0,57,NA,0,57,57,Thu Dec  8 18:27:41 2016,The main experiment item,yes,m,IC_RSI2000.osexp,/Users/Muki/Documents/Labor/Bence Stroop,no,mono,no,18,no,black,no,Ok,NA,no,Male,800,legacy,C:/Users/User/Dropbox/Sussex/Consciousness and control/Exp 1 - stroop suggestion and PCE/Methods/Palfi_script/laptop_size/subject-14_CI.csv,legacy,Interactive Ising,3.0.7,0,m,m,space,NA,752,752,11911,NA,2,legacy,1024,2,48000,-16,experiment,0,even,NA,218038,96886,101675,92399,279288,278687,279244,280052,281064,206126,NA,206126,66167,280300,278732,NA,47918,NA,NA,277346,47920,281514,NA,104120,278674,279288,Stroop CI,57,79865,62,yes,1280,BLUE
54,90.47619048,yes,90.47619048,20,1282,1282,#ffffff,no,I,v;b;n;m,legacy,I have read and understood the information shown above,legacy,legacy,green,0,inc,uniform,0,0,1,NA,0,0,0,0,0,58,58,58,58,58,0,0,5,0,58,58,0,0,NA,0,58,0,58,NA,0,58,58,Thu Dec  8 18:27:41 2016,The main experiment item,yes,n,IC_RSI2000.osexp,/Users/Muki/Documents/Labor/Bence Stroop,no,mono,no,18,no,black,no,Ok,NA,no,Male,800,legacy,C:/Users/User/Dropbox/Sussex/Consciousness and control/Exp 1 - stroop suggestion and PCE/Methods/Palfi_script/laptop_size/subject-14_CI.csv,legacy,Interactive Ising,3.0.7,0,v,v,space,NA,934,934,11911,NA,2,legacy,1024,2,48000,-16,experiment,0,even,NA,218038,96886,101675,92399,282175,281576,282132,283121,284130,206126,NA,206126,66167,280300,281619,NA,47918,NA,NA,283368,47920,284580,NA,104120,281565,282175,Stroop CI,57,80799,63,yes,1280,RED
98,90.625,yes,90.625,20,1272,1272,#ffffff,no,I,v;b;n;m,legacy,I have read and understood the information shown above,legacy,legacy,red,0,con,uniform,1,1,1,NA,0,0,0,0,0,59,59,59,59,59,0,0,5,0,59,59,0,0,NA,0,59,0,59,NA,0,59,59,Thu Dec  8 18:27:41 2016,The main experiment item,yes,v,IC_RSI2000.osexp,/Users/Muki/Documents/Labor/Bence Stroop,no,mono,no,18,no,black,no,Ok,NA,no,Male,800,legacy,C:/Users/User/Dropbox/Sussex/Consciousness and control/Exp 1 - stroop suggestion and PCE/Methods/Palfi_script/laptop_size/subject-14_CI.csv,legacy,Interactive Ising,3.0.7,0,v,v,space,NA,631,631,11911,NA,2,legacy,1024,2,48000,-16,experiment,0,even,NA,218038,96886,101675,92399,285247,284645,285202,285891,286903,206126,NA,206126,66167,286139,284690,NA,47918,NA,NA,283368,47920,287353,NA,104120,284634,285247,Stroop CI,58,81430,64,yes,1280,RED
19,90.76923077,yes,90.76923077,20,1264,1264,#ffffff,no,I,v;b;n;m,legacy,I have read and understood the information shown above,legacy,legacy,red,0,inc,uniform,1,1,1,NA,0,0,0,0,0,60,60,60,60,60,0,0,5,0,60,60,0,0,NA,0,60,0,60,NA,0,60,60,Thu Dec  8 18:27:41 2016,The main experiment item,yes,v,IC_RSI2000.osexp,/Users/Muki/Documents/Labor/Bence Stroop,no,mono,no,18,no,black,no,Ok,NA,no,Male,800,legacy,C:/Users/User/Dropbox/Sussex/Consciousness and control/Exp 1 - stroop suggestion and PCE/Methods/Palfi_script/laptop_size/subject-14_CI.csv,legacy,Interactive Ising,3.0.7,0,v,v,space,NA,733,733,11911,NA,2,legacy,1024,2,48000,-16,experiment,0,even,NA,218038,96886,101675,92399,288028,287430,287985,288773,289786,206126,NA,206126,66167,289019,287473,NA,47918,NA,NA,283368,47920,290236,NA,104120,287418,288028,Stroop CI,59,82163,65,yes,1280,YELLOW
50,90.90909091,yes,90.90909091,20,1254,1254,#ffffff,no,I,v;b;n;m,legacy,I have read and understood the information shown above,legacy,legacy,green,0,inc,uniform,1,1,1,NA,0,0,0,0,0,61,61,61,61,61,0,0,5,0,61,61,0,0,NA,0,61,0,61,NA,0,61,61,Thu Dec  8 18:27:41 2016,The main experiment item,yes,n,IC_RSI2000.osexp,/Users/Muki/Documents/Labor/Bence Stroop,no,mono,no,18,no,black,no,Ok,NA,no,Male,800,legacy,C:/Users/User/Dropbox/Sussex/Consciousness and control/Exp 1 - stroop suggestion and PCE/Methods/Palfi_script/laptop_size/subject-14_CI.csv,legacy,Interactive Ising,3.0.7,0,n,n,space,NA,638,638,11911,NA,2,legacy,1024,2,48000,-16,experiment,0,even,NA,218038,96886,101675,92399,290904,290305,290860,291553,292566,206126,NA,206126,66167,291803,290349,NA,47918,NA,NA,283368,47920,293016,NA,104120,290294,290904,Stroop CI,60,82801,66,yes,1280,RED
63,91.04477612,yes,91.04477612,20,1244,1244,#ffffff,no,I,v;b;n;m,legacy,I have read and understood the information shown above,legacy,legacy,green,0,inc,uniform,1,1,1,NA,0,0,0,0,0,62,62,62,62,62,0,0,5,0,62,62,0,0,NA,0,62,0,62,NA,0,62,62,Thu Dec  8 18:27:41 2016,The main experiment item,yes,n,IC_RSI2000.osexp,/Users/Muki/Documents/Labor/Bence Stroop,no,mono,no,18,no,black,no,Ok,NA,no,Male,800,legacy,C:/Users/User/Dropbox/Sussex/Consciousness and control/Exp 1 - stroop suggestion and PCE/Methods/Palfi_script/laptop_size/subject-14_CI.csv,legacy,Interactive Ising,3.0.7,0,n,n,space,NA,613,613,11911,NA,2,legacy,1024,2,48000,-16,experiment,0,even,NA,218038,96886,101675,92399,293689,293088,293646,294313,295325,206126,NA,206126,66167,294560,293134,NA,47918,NA,NA,283368,47920,295775,NA,104120,293077,293689,Stroop CI,61,83414,67,yes,1280,BLUE
45,91.17647059,yes,91.17647059,20,1235,1235,#ffffff,no,I,v;b;n;m,legacy,I have read and understood the information shown above,legacy,legacy,blue,0,inc,uniform,1,1,1,NA,0,0,0,0,0,63,63,63,63,63,0,0,5,0,63,63,0,0,NA,0,63,0,63,NA,0,63,63,Thu Dec  8 18:27:41 2016,The main experiment item,yes,b,IC_RSI2000.osexp,/Users/Muki/Documents/Labor/Bence Stroop,no,mono,no,18,no,black,no,Ok,NA,no,Male,800,legacy,C:/Users/User/Dropbox/Sussex/Consciousness and control/Exp 1 - stroop suggestion and PCE/Methods/Palfi_script/laptop_size/subject-14_CI.csv,legacy,Interactive Ising,3.0.7,0,b,b,space,NA,600,600,11911,NA,2,legacy,1024,2,48000,-16,experiment,0,even,NA,218038,96886,101675,92399,296444,295845,296400,297055,298063,206126,NA,206126,66167,297302,295888,NA,47918,NA,NA,283368,47920,298514,NA,104120,295835,296444,Stroop CI,62,84014,68,yes,1280,YELLOW
84,91.30434783,yes,91.30434783,20,1228,1228,#ffffff,no,I,v;b;n;m,legacy,I have read and understood the information shown above,legacy,legacy,#ffef36,0,inc,uniform,1,1,1,NA,0,0,0,0,0,64,64,64,64,64,0,0,5,0,64,64,0,0,NA,0,64,0,64,NA,0,64,64,Thu Dec  8 18:27:41 2016,The main experiment item,yes,m,IC_RSI2000.osexp,/Users/Muki/Documents/Labor/Bence Stroop,no,mono,no,18,no,black,no,Ok,NA,no,Male,800,legacy,C:/Users/User/Dropbox/Sussex/Consciousness and control/Exp 1 - stroop suggestion and PCE/Methods/Palfi_script/laptop_size/subject-14_CI.csv,legacy,Interactive Ising,3.0.7,0,m,m,space,NA,719,719,11911,NA,2,legacy,1024,2,48000,-16,experiment,0,even,NA,218038,96886,101675,92399,299184,298585,299141,299914,300928,206126,NA,206126,66167,300163,298629,NA,47918,NA,NA,283368,47920,301378,NA,104120,298574,299184,Stroop CI,63,84733,69,yes,1280,BLUE
73,91.42857143,yes,91.42857143,20,1219,1219,#ffffff,no,I,v;b;n;m,legacy,I have read and understood the information shown above,legacy,legacy,#ffef36,0,inc,uniform,1,1,1,NA,0,0,0,0,0,65,65,65,65,65,0,0,5,0,65,65,0,0,NA,0,65,0,65,NA,0,65,65,Thu Dec  8 18:27:41 2016,The main experiment item,yes,m,IC_RSI2000.osexp,/Users/Muki/Documents/Labor/Bence Stroop,no,mono,no,18,no,black,no,Ok,NA,no,Male,800,legacy,C:/Users/User/Dropbox/Sussex/Consciousness and control/Exp 1 - stroop suggestion and PCE/Methods/Palfi_script/laptop_size/subject-14_CI.csv,legacy,Interactive Ising,3.0.7,0,m,m,space,NA,660,660,11911,NA,2,legacy,1024,2,48000,-16,experiment,0,even,NA,218038,96886,101675,92399,302048,301445,301999,302719,303733,206126,NA,206126,66167,302967,301488,NA,47918,NA,NA,283368,47920,304183,NA,104120,301434,302047,Stroop CI,64,85393,70,yes,1280,RED
58,91.54929577,yes,91.54929577,20,1212,1212,#ffffff,no,I,v;b;n;m,legacy,I have read and understood the information shown above,legacy,legacy,green,0,inc,uniform,1,1,1,NA,0,0,0,0,0,66,66,66,66,66,0,0,5,0,66,66,0,0,NA,0,66,0,66,NA,0,66,66,Thu Dec  8 18:27:41 2016,The main experiment item,yes,n,IC_RSI2000.osexp,/Users/Muki/Documents/Labor/Bence Stroop,no,mono,no,18,no,black,no,Ok,NA,no,Male,800,legacy,C:/Users/User/Dropbox/Sussex/Consciousness and control/Exp 1 - stroop suggestion and PCE/Methods/Palfi_script/laptop_size/subject-14_CI.csv,legacy,Interactive Ising,3.0.7,0,n,n,space,NA,706,706,11911,NA,2,legacy,1024,2,48000,-16,experiment,0,even,NA,218038,96886,101675,92399,304851,304253,304808,305569,306580,206126,NA,206126,66167,305817,304297,NA,47918,NA,NA,283368,47920,307030,NA,104120,304242,304851,Stroop CI,65,86099,71,yes,1280,BLUE
38,91.66666667,yes,91.66666667,20,1216,1216,#ffffff,no,I,v;b;n;m,legacy,I have read and understood the information shown above,legacy,legacy,blue,0,inc,uniform,1,1,1,NA,0,0,0,0,0,67,67,67,67,67,0,0,5,0,67,67,0,0,NA,0,67,0,67,NA,0,67,67,Thu Dec  8 18:27:41 2016,The main experiment item,yes,b,IC_RSI2000.osexp,/Users/Muki/Documents/Labor/Bence Stroop,no,mono,no,18,no,black,no,Ok,NA,no,Male,800,legacy,C:/Users/User/Dropbox/Sussex/Consciousness and control/Exp 1 - stroop suggestion and PCE/Methods/Palfi_script/laptop_size/subject-14_CI.csv,legacy,Interactive Ising,3.0.7,0,b,b,space,NA,1503,1503,11911,NA,2,legacy,1024,2,48000,-16,experiment,0,even,NA,218038,96886,101675,92399,307697,307097,307652,309212,310227,206126,NA,206126,66167,309463,307140,NA,47918,NA,NA,283368,47920,310677,NA,104120,307087,307697,Stroop CI,66,87602,72,yes,1280,GREEN
75,91.78082192,yes,91.78082192,20,1220,1220,#ffffff,no,I,v;b;n;m,legacy,I have read and understood the information shown above,legacy,legacy,#ffef36,0,inc,uniform,1,1,1,NA,0,0,0,0,0,68,68,68,68,68,0,0,5,0,68,68,0,0,NA,0,68,0,68,NA,0,68,68,Thu Dec  8 18:27:41 2016,The main experiment item,yes,m,IC_RSI2000.osexp,/Users/Muki/Documents/Labor/Bence Stroop,no,mono,no,18,no,black,no,Ok,NA,no,Male,800,legacy,C:/Users/User/Dropbox/Sussex/Consciousness and control/Exp 1 - stroop suggestion and PCE/Methods/Palfi_script/laptop_size/subject-14_CI.csv,legacy,Interactive Ising,3.0.7,0,m,m,space,NA,1458,1458,11911,NA,2,legacy,1024,2,48000,-16,experiment,0,even,NA,218038,96886,101675,92399,311344,310739,311301,312813,313826,206126,NA,206126,66167,313060,310790,NA,47918,NA,NA,283368,47920,314276,NA,104120,310729,311344,Stroop CI,67,89060,73,yes,1280,RED
2,91.89189189,yes,91.89189189,20,1213,1213,#ffffff,no,I,v;b;n;m,legacy,I have read and understood the information shown above,legacy,legacy,red,0,inc,uniform,1,1,1,NA,0,0,0,0,0,69,69,69,69,69,0,0,5,0,69,69,0,0,NA,0,69,0,69,NA,0,69,69,Thu Dec  8 18:27:41 2016,The main experiment item,yes,v,IC_RSI2000.osexp,/Users/Muki/Documents/Labor/Bence Stroop,no,mono,no,18,no,black,no,Ok,NA,no,Male,800,legacy,C:/Users/User/Dropbox/Sussex/Consciousness and control/Exp 1 - stroop suggestion and PCE/Methods/Palfi_script/laptop_size/subject-14_CI.csv,legacy,Interactive Ising,3.0.7,0,v,v,space,NA,736,736,11911,NA,2,legacy,1024,2,48000,-16,experiment,0,even,NA,218038,96886,101675,92399,314954,314352,314909,315701,316716,206126,NA,206126,66167,315951,314396,NA,47918,NA,NA,283368,47920,317166,NA,104120,314342,314954,Stroop CI,68,89796,74,yes,1280,BLUE
103,92,yes,92,20,1206,1206,#ffffff,no,I,v;b;n;m,legacy,I have read and understood the information shown above,legacy,legacy,green,0,con,uniform,1,1,1,NA,0,0,0,0,0,70,70,70,70,70,0,0,5,0,70,70,0,0,NA,0,70,0,70,NA,0,70,70,Thu Dec  8 18:27:41 2016,The main experiment item,yes,n,IC_RSI2000.osexp,/Users/Muki/Documents/Labor/Bence Stroop,no,mono,no,18,no,black,no,Ok,NA,no,Male,800,legacy,C:/Users/User/Dropbox/Sussex/Consciousness and control/Exp 1 - stroop suggestion and PCE/Methods/Palfi_script/laptop_size/subject-14_CI.csv,legacy,Interactive Ising,3.0.7,0,n,n,space,NA,696,696,11911,NA,2,legacy,1024,2,48000,-16,experiment,0,even,NA,218038,96886,101675,92399,317828,317230,317785,318535,319551,206126,NA,206126,66167,318785,317274,NA,47918,NA,NA,283368,47920,320001,NA,104120,317220,317828,Stroop CI,69,90492,75,yes,1280,GREEN
5,92.10526316,yes,92.10526316,20,1203,1203,#ffffff,no,I,v;b;n;m,legacy,I have read and understood the information shown above,legacy,legacy,red,0,inc,uniform,1,1,1,NA,0,0,0,0,0,71,71,71,71,71,0,0,5,0,71,71,0,0,NA,0,71,0,71,NA,0,71,71,Thu Dec  8 18:27:41 2016,The main experiment item,yes,v,IC_RSI2000.osexp,/Users/Muki/Documents/Labor/Bence Stroop,no,mono,no,18,no,black,no,Ok,NA,no,Male,800,legacy,C:/Users/User/Dropbox/Sussex/Consciousness and control/Exp 1 - stroop suggestion and PCE/Methods/Palfi_script/laptop_size/subject-14_CI.csv,legacy,Interactive Ising,3.0.7,0,v,v,space,NA,949,949,11911,NA,2,legacy,1024,2,48000,-16,experiment,0,even,NA,218038,96886,101675,92399,320666,320066,320623,321626,322636,206126,NA,206126,66167,321872,320111,NA,47918,NA,NA,283368,47920,323086,NA,104120,320056,320666,Stroop CI,70,91441,76,yes,1280,BLUE
11,92.20779221,yes,92.20779221,20,1195,1195,#ffffff,no,I,v;b;n;m,legacy,I have read and understood the information shown above,legacy,legacy,red,0,inc,uniform,1,1,1,NA,0,0,0,0,0,72,72,72,72,72,0,0,5,0,72,72,0,0,NA,0,72,0,72,NA,0,72,72,Thu Dec  8 18:27:41 2016,The main experiment item,yes,v,IC_RSI2000.osexp,/Users/Muki/Documents/Labor/Bence Stroop,no,mono,no,18,no,black,no,Ok,NA,no,Male,800,legacy,C:/Users/User/Dropbox/Sussex/Consciousness and control/Exp 1 - stroop suggestion and PCE/Methods/Palfi_script/laptop_size/subject-14_CI.csv,legacy,Interactive Ising,3.0.7,0,v,v,space,NA,614,614,11911,NA,2,legacy,1024,2,48000,-16,experiment,0,even,NA,218038,96886,101675,92399,323758,323156,323710,324384,325397,206126,NA,206126,66167,324631,323199,NA,47918,NA,NA,283368,47920,325848,NA,104120,323144,323758,Stroop CI,71,92055,77,yes,1280,GREEN
35,92.30769231,yes,92.30769231,20,1205,1205,#ffffff,no,I,v;b;n;m,legacy,I have read and understood the information shown above,legacy,legacy,blue,0,inc,uniform,1,1,1,NA,0,0,0,0,0,73,73,73,73,73,0,0,5,0,73,73,0,0,NA,0,73,0,73,NA,0,73,73,Thu Dec  8 18:27:41 2016,The main experiment item,yes,b,IC_RSI2000.osexp,/Users/Muki/Documents/Labor/Bence Stroop,no,mono,no,18,no,black,no,Ok,NA,no,Male,800,legacy,C:/Users/User/Dropbox/Sussex/Consciousness and control/Exp 1 - stroop suggestion and PCE/Methods/Palfi_script/laptop_size/subject-14_CI.csv,legacy,Interactive Ising,3.0.7,0,b,b,space,NA,1996,1996,11911,NA,2,legacy,1024,2,48000,-16,experiment,0,even,NA,218038,96886,101675,92399,326538,325935,326495,328546,329562,206126,NA,206126,66167,328796,325979,NA,47918,NA,NA,283368,47920,330012,NA,104120,325925,326538,Stroop CI,72,94051,78,yes,1280,GREEN
16,92.40506329,yes,92.40506329,20,1198,1198,#ffffff,no,I,v;b;n;m,legacy,I have read and understood the information shown above,legacy,legacy,red,0,inc,uniform,1,1,1,NA,0,0,0,0,0,74,74,74,74,74,0,0,5,0,74,74,0,0,NA,0,74,0,74,NA,0,74,74,Thu Dec  8 18:27:41 2016,The main experiment item,yes,v,IC_RSI2000.osexp,/Users/Muki/Documents/Labor/Bence Stroop,no,mono,no,18,no,black,no,Ok,NA,no,Male,800,legacy,C:/Users/User/Dropbox/Sussex/Consciousness and control/Exp 1 - stroop suggestion and PCE/Methods/Palfi_script/laptop_size/subject-14_CI.csv,legacy,Interactive Ising,3.0.7,0,v,v,space,NA,642,642,11911,NA,2,legacy,1024,2,48000,-16,experiment,0,even,NA,218038,96886,101675,92399,330688,330081,330638,331342,332352,206126,NA,206126,66167,331588,330125,NA,47918,NA,NA,283368,47920,332802,NA,104120,330070,330688,Stroop CI,73,94693,79,yes,1280,GREEN
99,92.5,yes,92.5,20,1189,1189,#ffffff,no,I,v;b;n;m,legacy,I have read and understood the information shown above,legacy,legacy,red,0,con,uniform,1,1,1,NA,0,0,0,0,0,75,75,75,75,75,0,0,5,0,75,75,0,0,NA,0,75,0,75,NA,0,75,75,Thu Dec  8 18:27:41 2016,The main experiment item,yes,v,IC_RSI2000.osexp,/Users/Muki/Documents/Labor/Bence Stroop,no,mono,no,18,no,black,no,Ok,NA,no,Male,800,legacy,C:/Users/User/Dropbox/Sussex/Consciousness and control/Exp 1 - stroop suggestion and PCE/Methods/Palfi_script/laptop_size/subject-14_CI.csv,legacy,Interactive Ising,3.0.7,0,v,v,space,NA,503,503,11911,NA,2,legacy,1024,2,48000,-16,experiment,0,even,NA,218038,96886,101675,92399,333482,332880,333439,333996,335009,206126,NA,206126,66167,334245,332926,NA,47918,NA,NA,283368,47920,335460,NA,104120,332869,333482,Stroop CI,74,95196,80,yes,1280,RED
91,92.59259259,yes,92.59259259,20,1183,1183,#ffffff,no,I,v;b;n;m,legacy,I have read and understood the information shown above,legacy,legacy,#ffef36,0,inc,uniform,1,1,1,NA,0,0,0,0,0,76,76,76,76,76,0,0,5,0,76,76,0,0,NA,0,76,0,76,NA,0,76,76,Thu Dec  8 18:27:41 2016,The main experiment item,yes,m,IC_RSI2000.osexp,/Users/Muki/Documents/Labor/Bence Stroop,no,mono,no,18,no,black,no,Ok,NA,no,Male,800,legacy,C:/Users/User/Dropbox/Sussex/Consciousness and control/Exp 1 - stroop suggestion and PCE/Methods/Palfi_script/laptop_size/subject-14_CI.csv,legacy,Interactive Ising,3.0.7,0,m,m,space,NA,630,630,11911,NA,2,legacy,1024,2,48000,-16,experiment,0,even,NA,218038,96886,101675,92399,336126,335522,336080,336767,337777,206126,NA,206126,66167,337013,335566,NA,47918,NA,NA,283368,47920,338227,NA,104120,335512,336126,Stroop CI,75,95826,81,yes,1280,GREEN
28,92.68292683,yes,92.68292683,20,1177,1177,#ffffff,no,I,v;b;n;m,legacy,I have read and understood the information shown above,legacy,legacy,blue,0,inc,uniform,1,1,1,NA,0,0,0,0,0,77,77,77,77,77,0,0,5,0,77,77,0,0,NA,0,77,0,77,NA,0,77,77,Thu Dec  8 18:27:41 2016,The main experiment item,yes,b,IC_RSI2000.osexp,/Users/Muki/Documents/Labor/Bence Stroop,no,mono,no,18,no,black,no,Ok,NA,no,Male,800,legacy,C:/Users/User/Dropbox/Sussex/Consciousness and control/Exp 1 - stroop suggestion and PCE/Methods/Palfi_script/laptop_size/subject-14_CI.csv,legacy,Interactive Ising,3.0.7,0,b,b,space,NA,705,705,11911,NA,2,legacy,1024,2,48000,-16,experiment,0,even,NA,218038,96886,101675,92399,338899,338295,338849,339616,340632,206126,NA,206126,66167,339865,338338,NA,47918,NA,NA,283368,47920,341082,NA,104120,338285,338898,Stroop CI,76,96531,82,yes,1280,RED
113,92.77108434,yes,92.77108434,20,1170,1170,#ffffff,no,I,v;b;n;m,legacy,I have read and understood the information shown above,legacy,legacy,blue,0,neutral,uniform,1,1,1,NA,0,0,0,0,0,78,78,78,78,78,0,0,5,0,78,78,0,0,NA,0,78,0,78,NA,0,78,78,Thu Dec  8 18:27:41 2016,The main experiment item,yes,b,IC_RSI2000.osexp,/Users/Muki/Documents/Labor/Bence Stroop,no,mono,no,18,no,black,no,Ok,NA,no,Male,800,legacy,C:/Users/User/Dropbox/Sussex/Consciousness and control/Exp 1 - stroop suggestion and PCE/Methods/Palfi_script/laptop_size/subject-14_CI.csv,legacy,Interactive Ising,3.0.7,0,b,b,space,NA,605,605,11911,NA,2,legacy,1024,2,48000,-16,experiment,0,even,NA,218038,96886,101675,92399,341757,341145,341708,342376,343394,206126,NA,206126,66167,342626,341196,NA,47918,NA,NA,283368,47920,343844,NA,104120,341135,341757,Stroop CI,77,97136,83,yes,1280,KNIFE
97,92.85714286,yes,92.85714286,20,1163,1163,#ffffff,no,I,v;b;n;m,legacy,I have read and understood the information shown above,legacy,legacy,red,0,con,uniform,1,1,1,NA,0,0,0,0,0,79,79,79,79,79,0,0,5,0,79,79,0,0,NA,0,79,0,79,NA,0,79,79,Thu Dec  8 18:27:41 2016,The main experiment item,yes,v,IC_RSI2000.osexp,/Users/Muki/Documents/Labor/Bence Stroop,no,mono,no,18,no,black,no,Ok,NA,no,Male,800,legacy,C:/Users/User/Dropbox/Sussex/Consciousness and control/Exp 1 - stroop suggestion and PCE/Methods/Palfi_script/laptop_size/subject-14_CI.csv,legacy,Interactive Ising,3.0.7,0,v,v,space,NA,584,584,11911,NA,2,legacy,1024,2,48000,-16,experiment,0,even,NA,218038,96886,101675,92399,344521,343920,344477,345117,346128,206126,NA,206126,66167,345366,343963,NA,47918,NA,NA,283368,47920,346578,NA,104120,343909,344520,Stroop CI,78,97720,84,yes,1280,RED
118,92.94117647,yes,92.94117647,20,1156,1156,#ffffff,no,I,v;b;n;m,legacy,I have read and understood the information shown above,legacy,legacy,#ffef36,0,neutral,uniform,1,1,1,NA,0,0,0,0,0,80,80,80,80,80,0,0,5,0,80,80,0,0,NA,0,80,0,80,NA,0,80,80,Thu Dec  8 18:27:41 2016,The main experiment item,yes,m,IC_RSI2000.osexp,/Users/Muki/Documents/Labor/Bence Stroop,no,mono,no,18,no,black,no,Ok,NA,no,Male,800,legacy,C:/Users/User/Dropbox/Sussex/Consciousness and control/Exp 1 - stroop suggestion and PCE/Methods/Palfi_script/laptop_size/subject-14_CI.csv,legacy,Interactive Ising,3.0.7,0,m,m,space,NA,619,619,11911,NA,2,legacy,1024,2,48000,-16,experiment,0,even,NA,218038,96886,101675,92399,347243,346642,347197,347874,348886,206126,NA,206126,66167,348123,346686,NA,47918,NA,NA,283368,47920,349336,NA,104120,346631,347243,Stroop CI,79,98339,85,yes,1280,LOT
36,93.02325581,yes,93.02325581,20,1153,1153,#ffffff,no,I,v;b;n;m,legacy,I have read and understood the information shown above,legacy,legacy,blue,0,inc,uniform,1,1,1,NA,0,0,0,0,0,81,81,81,81,81,0,0,5,0,81,81,0,0,NA,0,81,0,81,NA,0,81,81,Thu Dec  8 18:27:41 2016,The main experiment item,yes,b,IC_RSI2000.osexp,/Users/Muki/Documents/Labor/Bence Stroop,no,mono,no,18,no,black,no,Ok,NA,no,Male,800,legacy,C:/Users/User/Dropbox/Sussex/Consciousness and control/Exp 1 - stroop suggestion and PCE/Methods/Palfi_script/laptop_size/subject-14_CI.csv,legacy,Interactive Ising,3.0.7,0,b,b,space,NA,873,873,11911,NA,2,legacy,1024,2,48000,-16,experiment,0,even,NA,218038,96886,101675,92399,350072,349469,350027,350958,351970,206126,NA,206126,66167,351205,349514,NA,47918,NA,NA,283368,47920,352420,NA,104120,349457,350072,Stroop CI,80,99212,86,yes,1280,GREEN
43,91.95402299,yes,91.95402299,20,1151,1151,#ffffff,no,I,v;b;n;m,legacy,I have read and understood the information shown above,legacy,legacy,blue,0,inc,uniform,0,0,1,NA,0,0,0,0,0,82,82,82,82,82,0,0,5,0,82,82,0,0,NA,0,82,0,82,NA,0,82,82,Thu Dec  8 18:27:41 2016,The main experiment item,yes,b,IC_RSI2000.osexp,/Users/Muki/Documents/Labor/Bence Stroop,no,mono,no,18,no,black,no,Ok,NA,no,Male,800,legacy,C:/Users/User/Dropbox/Sussex/Consciousness and control/Exp 1 - stroop suggestion and PCE/Methods/Palfi_script/laptop_size/subject-14_CI.csv,legacy,Interactive Ising,3.0.7,0,m,m,space,NA,999,999,11911,NA,2,legacy,1024,2,48000,-16,experiment,0,even,NA,218038,96886,101675,92399,353089,352484,353040,354100,355116,206126,NA,206126,66167,351205,352528,NA,47918,NA,NA,354352,47920,355566,NA,104120,352472,353088,Stroop CI,80,100211,87,yes,1280,YELLOW
60,92.04545455,yes,92.04545455,20,1147,1147,#ffffff,no,I,v;b;n;m,legacy,I have read and understood the information shown above,legacy,legacy,green,0,inc,uniform,1,1,1,NA,0,0,0,0,0,83,83,83,83,83,0,0,5,0,83,83,0,0,NA,0,83,0,83,NA,0,83,83,Thu Dec  8 18:27:41 2016,The main experiment item,yes,n,IC_RSI2000.osexp,/Users/Muki/Documents/Labor/Bence Stroop,no,mono,no,18,no,black,no,Ok,NA,no,Male,800,legacy,C:/Users/User/Dropbox/Sussex/Consciousness and control/Exp 1 - stroop suggestion and PCE/Methods/Palfi_script/laptop_size/subject-14_CI.csv,legacy,Interactive Ising,3.0.7,0,n,n,space,NA,781,781,11911,NA,2,legacy,1024,2,48000,-16,experiment,0,even,NA,218038,96886,101675,92399,356237,355630,356193,357030,358043,206126,NA,206126,66167,357279,355674,NA,47918,NA,NA,354352,47920,358493,NA,104120,355618,356237,Stroop CI,81,100992,88,yes,1280,BLUE
39,92.13483146,yes,92.13483146,20,1140,1140,#ffffff,no,I,v;b;n;m,legacy,I have read and understood the information shown above,legacy,legacy,blue,0,inc,uniform,1,1,1,NA,0,0,0,0,0,84,84,84,84,84,0,0,5,0,84,84,0,0,NA,0,84,0,84,NA,0,84,84,Thu Dec  8 18:27:41 2016,The main experiment item,yes,b,IC_RSI2000.osexp,/Users/Muki/Documents/Labor/Bence Stroop,no,mono,no,18,no,black,no,Ok,NA,no,Male,800,legacy,C:/Users/User/Dropbox/Sussex/Consciousness and control/Exp 1 - stroop suggestion and PCE/Methods/Palfi_script/laptop_size/subject-14_CI.csv,legacy,Interactive Ising,3.0.7,0,b,b,space,NA,545,545,11911,NA,2,legacy,1024,2,48000,-16,experiment,0,even,NA,218038,96886,101675,92399,359165,358561,359117,359723,360735,206126,NA,206126,66167,359971,358606,NA,47918,NA,NA,354352,47920,361185,NA,104120,358550,359165,Stroop CI,82,101537,89,yes,1280,GREEN
34,92.22222222,yes,92.22222222,20,1142,1142,#ffffff,no,I,v;b;n;m,legacy,I have read and understood the information shown above,legacy,legacy,blue,0,inc,uniform,1,1,1,NA,0,0,0,0,0,85,85,85,85,85,0,0,5,0,85,85,0,0,NA,0,85,0,85,NA,0,85,85,Thu Dec  8 18:27:41 2016,The main experiment item,yes,b,IC_RSI2000.osexp,/Users/Muki/Documents/Labor/Bence Stroop,no,mono,no,18,no,black,no,Ok,NA,no,Male,800,legacy,C:/Users/User/Dropbox/Sussex/Consciousness and control/Exp 1 - stroop suggestion and PCE/Methods/Palfi_script/laptop_size/subject-14_CI.csv,legacy,Interactive Ising,3.0.7,0,b,b,space,NA,1265,1265,11911,NA,2,legacy,1024,2,48000,-16,experiment,0,even,NA,218038,96886,101675,92399,361865,361263,361820,363142,364151,206126,NA,206126,66167,363386,361306,NA,47918,NA,NA,354352,47920,364601,NA,104120,361252,361865,Stroop CI,83,102802,90,yes,1280,GREEN
9,92.30769231,yes,92.30769231,20,1137,1137,#ffffff,no,I,v;b;n;m,legacy,I have read and understood the information shown above,legacy,legacy,red,0,inc,uniform,1,1,1,NA,0,0,0,0,0,86,86,86,86,86,0,0,5,0,86,86,0,0,NA,0,86,0,86,NA,0,86,86,Thu Dec  8 18:27:41 2016,The main experiment item,yes,v,IC_RSI2000.osexp,/Users/Muki/Documents/Labor/Bence Stroop,no,mono,no,18,no,black,no,Ok,NA,no,Male,800,legacy,C:/Users/User/Dropbox/Sussex/Consciousness and control/Exp 1 - stroop suggestion and PCE/Methods/Palfi_script/laptop_size/subject-14_CI.csv,legacy,Interactive Ising,3.0.7,0,v,v,space,NA,671,671,11911,NA,2,legacy,1024,2,48000,-16,experiment,0,even,NA,218038,96886,101675,92399,365267,364666,365223,365949,366961,206126,NA,206126,66167,366197,364712,NA,47918,NA,NA,354352,47920,367411,NA,104120,364656,365267,Stroop CI,84,103473,91,yes,1280,GREEN
32,92.39130435,yes,92.39130435,20,1142,1142,#ffffff,no,I,v;b;n;m,legacy,I have read and understood the information shown above,legacy,legacy,blue,0,inc,uniform,1,1,1,NA,0,0,0,0,0,87,87,87,87,87,0,0,5,0,87,87,0,0,NA,0,87,0,87,NA,0,87,87,Thu Dec  8 18:27:41 2016,The main experiment item,yes,b,IC_RSI2000.osexp,/Users/Muki/Documents/Labor/Bence Stroop,no,mono,no,18,no,black,no,Ok,NA,no,Male,800,legacy,C:/Users/User/Dropbox/Sussex/Consciousness and control/Exp 1 - stroop suggestion and PCE/Methods/Palfi_script/laptop_size/subject-14_CI.csv,legacy,Interactive Ising,3.0.7,0,b,b,space,NA,1592,1592,11911,NA,2,legacy,1024,2,48000,-16,experiment,0,even,NA,218038,96886,101675,92399,368086,367486,368043,369690,370702,206126,NA,206126,66167,369937,367529,NA,47918,NA,NA,354352,47920,371152,NA,104120,367475,368086,Stroop CI,85,105065,92,yes,1280,RED
93,92.47311828,yes,92.47311828,20,1140,1140,#ffffff,no,I,v;b;n;m,legacy,I have read and understood the information shown above,legacy,legacy,#ffef36,0,inc,uniform,1,1,1,NA,0,0,0,0,0,88,88,88,88,88,0,0,5,0,88,88,0,0,NA,0,88,0,88,NA,0,88,88,Thu Dec  8 18:27:41 2016,The main experiment item,yes,m,IC_RSI2000.osexp,/Users/Muki/Documents/Labor/Bence Stroop,no,mono,no,18,no,black,no,Ok,NA,no,Male,800,legacy,C:/Users/User/Dropbox/Sussex/Consciousness and control/Exp 1 - stroop suggestion and PCE/Methods/Palfi_script/laptop_size/subject-14_CI.csv,legacy,Interactive Ising,3.0.7,0,m,m,space,NA,1023,1023,11911,NA,2,legacy,1024,2,48000,-16,experiment,0,even,NA,218038,96886,101675,92399,371814,371214,371771,372849,373861,206126,NA,206126,66167,373096,371257,NA,47918,NA,NA,354352,47920,374311,NA,104120,371203,371814,Stroop CI,86,106088,93,yes,1280,GREEN
47,91.4893617,yes,91.4893617,20,1136,1136,#ffffff,no,I,v;b;n;m,legacy,I have read and understood the information shown above,legacy,legacy,blue,0,inc,uniform,0,0,1,NA,0,0,0,0,0,89,89,89,89,89,0,0,5,0,89,89,0,0,NA,0,89,0,89,NA,0,89,89,Thu Dec  8 18:27:41 2016,The main experiment item,yes,b,IC_RSI2000.osexp,/Users/Muki/Documents/Labor/Bence Stroop,no,mono,no,18,no,black,no,Ok,NA,no,Male,800,legacy,C:/Users/User/Dropbox/Sussex/Consciousness and control/Exp 1 - stroop suggestion and PCE/Methods/Palfi_script/laptop_size/subject-14_CI.csv,legacy,Interactive Ising,3.0.7,0,m,m,space,NA,755,755,11911,NA,2,legacy,1024,2,48000,-16,experiment,0,even,NA,218038,96886,101675,92399,374979,374380,374935,375745,376755,206126,NA,206126,66167,373096,374423,NA,47918,NA,NA,375992,47920,377205,NA,104120,374370,374979,Stroop CI,86,106843,94,yes,1280,YELLOW
55,91.57894737,yes,91.57894737,20,1134,1134,#ffffff,no,I,v;b;n;m,legacy,I have read and understood the information shown above,legacy,legacy,green,0,inc,uniform,1,1,1,NA,0,0,0,0,0,90,90,90,90,90,0,0,5,0,90,90,0,0,NA,0,90,0,90,NA,0,90,90,Thu Dec  8 18:27:41 2016,The main experiment item,yes,n,IC_RSI2000.osexp,/Users/Muki/Documents/Labor/Bence Stroop,no,mono,no,18,no,black,no,Ok,NA,no,Male,800,legacy,C:/Users/User/Dropbox/Sussex/Consciousness and control/Exp 1 - stroop suggestion and PCE/Methods/Palfi_script/laptop_size/subject-14_CI.csv,legacy,Interactive Ising,3.0.7,0,n,n,space,NA,939,939,11911,NA,2,legacy,1024,2,48000,-16,experiment,0,even,NA,218038,96886,101675,92399,377871,377268,377825,378821,379832,206126,NA,206126,66167,379068,377312,NA,47918,NA,NA,375992,47920,380282,NA,104120,377257,377870,Stroop CI,87,107782,95,yes,1280,RED
4,90.625,yes,90.625,20,1133,1133,#ffffff,no,I,v;b;n;m,legacy,I have read and understood the information shown above,legacy,legacy,red,0,inc,uniform,0,0,1,NA,0,0,0,0,0,91,91,91,91,91,0,0,5,0,91,91,0,0,NA,0,91,0,91,NA,0,91,91,Thu Dec  8 18:27:41 2016,The main experiment item,yes,v,IC_RSI2000.osexp,/Users/Muki/Documents/Labor/Bence Stroop,no,mono,no,18,no,black,no,Ok,NA,no,Male,800,legacy,C:/Users/User/Dropbox/Sussex/Consciousness and control/Exp 1 - stroop suggestion and PCE/Methods/Palfi_script/laptop_size/subject-14_CI.csv,legacy,Interactive Ising,3.0.7,0,b,b,space,NA,996,996,11911,NA,2,legacy,1024,2,48000,-16,experiment,0,even,NA,218038,96886,101675,92399,380948,380349,380902,381955,382968,206126,NA,206126,66167,379068,380392,NA,47918,NA,NA,382205,47920,383418,NA,104120,380338,380948,Stroop CI,87,108778,96,yes,1280,BLUE
70,89.69072165,yes,89.69072165,20,1129,1129,#ffffff,no,I,v;b;n;m,legacy,I have read and understood the information shown above,legacy,legacy,green,0,inc,uniform,0,0,1,NA,0,0,0,0,0,92,92,92,92,92,0,0,5,0,92,92,0,0,NA,0,92,0,92,NA,0,92,92,Thu Dec  8 18:27:41 2016,The main experiment item,yes,n,IC_RSI2000.osexp,/Users/Muki/Documents/Labor/Bence Stroop,no,mono,no,18,no,black,no,Ok,NA,no,Male,800,legacy,C:/Users/User/Dropbox/Sussex/Consciousness and control/Exp 1 - stroop suggestion and PCE/Methods/Palfi_script/laptop_size/subject-14_CI.csv,legacy,Interactive Ising,3.0.7,0,m,m,space,NA,790,790,11911,NA,2,legacy,1024,2,48000,-16,experiment,0,even,NA,218038,96886,101675,92399,384088,383486,384043,384890,385905,206126,NA,206126,66167,379068,383530,NA,47918,NA,NA,385138,47920,386355,NA,104120,383474,384088,Stroop CI,87,109568,97,yes,1280,YELLOW
71,89.79591837,yes,89.79591837,20,1128,1128,#ffffff,no,I,v;b;n;m,legacy,I have read and understood the information shown above,legacy,legacy,green,0,inc,uniform,1,1,1,NA,0,0,0,0,0,93,93,93,93,93,0,0,5,0,93,93,0,0,NA,0,93,0,93,NA,0,93,93,Thu Dec  8 18:27:41 2016,The main experiment item,yes,n,IC_RSI2000.osexp,/Users/Muki/Documents/Labor/Bence Stroop,no,mono,no,18,no,black,no,Ok,NA,no,Male,800,legacy,C:/Users/User/Dropbox/Sussex/Consciousness and control/Exp 1 - stroop suggestion and PCE/Methods/Palfi_script/laptop_size/subject-14_CI.csv,legacy,Interactive Ising,3.0.7,0,n,n,space,NA,1035,1035,11911,NA,2,legacy,1024,2,48000,-16,experiment,0,even,NA,218038,96886,101675,92399,387033,386431,386987,388080,389089,206126,NA,206126,66167,388327,386474,NA,47918,NA,NA,385138,47920,389539,NA,104120,386420,387033,Stroop CI,88,110603,98,yes,1280,YELLOW
53,89.8989899,yes,89.8989899,20,1125,1125,#ffffff,no,I,v;b;n;m,legacy,I have read and understood the information shown above,legacy,legacy,green,0,inc,uniform,1,1,1,NA,0,0,0,0,0,94,94,94,94,94,0,0,5,0,94,94,0,0,NA,0,94,0,94,NA,0,94,94,Thu Dec  8 18:27:41 2016,The main experiment item,yes,n,IC_RSI2000.osexp,/Users/Muki/Documents/Labor/Bence Stroop,no,mono,no,18,no,black,no,Ok,NA,no,Male,800,legacy,C:/Users/User/Dropbox/Sussex/Consciousness and control/Exp 1 - stroop suggestion and PCE/Methods/Palfi_script/laptop_size/subject-14_CI.csv,legacy,Interactive Ising,3.0.7,0,n,n,space,NA,791,791,11911,NA,2,legacy,1024,2,48000,-16,experiment,0,even,NA,218038,96886,101675,92399,390200,389599,390156,391002,392014,206126,NA,206126,66167,391249,389646,NA,47918,NA,NA,385138,47920,392464,NA,104120,389589,390200,Stroop CI,89,111394,99,yes,1280,RED
3,90,yes,90,20,1118,1118,#ffffff,no,I,v;b;n;m,legacy,I have read and understood the information shown above,legacy,legacy,red,0,inc,uniform,1,1,1,NA,0,0,0,0,0,95,95,95,95,95,0,0,5,0,95,95,0,0,NA,0,95,0,95,NA,0,95,95,Thu Dec  8 18:27:41 2016,The main experiment item,yes,v,IC_RSI2000.osexp,/Users/Muki/Documents/Labor/Bence Stroop,no,mono,no,18,no,black,no,Ok,NA,no,Male,800,legacy,C:/Users/User/Dropbox/Sussex/Consciousness and control/Exp 1 - stroop suggestion and PCE/Methods/Palfi_script/laptop_size/subject-14_CI.csv,legacy,Interactive Ising,3.0.7,0,v,v,space,NA,493,493,11911,NA,2,legacy,1024,2,48000,-16,experiment,0,even,NA,218038,96886,101675,92399,393137,392537,393094,393641,394651,206126,NA,206126,66167,393887,392580,NA,47918,NA,NA,385138,47920,395101,NA,104120,392526,393137,Stroop CI,90,111887,100,yes,1280,BLUE
40,90.0990099,yes,90.0990099,20,1111,1111,#ffffff,no,I,v;b;n;m,legacy,I have read and understood the information shown above,legacy,legacy,blue,0,inc,uniform,1,1,1,NA,0,0,0,0,0,96,96,96,96,96,0,0,5,0,96,96,0,0,NA,0,96,0,96,NA,0,96,96,Thu Dec  8 18:27:41 2016,The main experiment item,yes,b,IC_RSI2000.osexp,/Users/Muki/Documents/Labor/Bence Stroop,no,mono,no,18,no,black,no,Ok,NA,no,Male,800,legacy,C:/Users/User/Dropbox/Sussex/Consciousness and control/Exp 1 - stroop suggestion and PCE/Methods/Palfi_script/laptop_size/subject-14_CI.csv,legacy,Interactive Ising,3.0.7,0,b,b,space,NA,413,413,11911,NA,2,legacy,1024,2,48000,-16,experiment,0,even,NA,218038,96886,101675,92399,395768,395166,395723,396193,397200,206126,NA,206126,66167,396438,395211,NA,47918,NA,NA,385138,47920,397651,NA,104120,395155,395768,Stroop CI,91,112300,101,yes,1280,GREEN
120,90.19607843,yes,90.19607843,20,1108,1108,#ffffff,no,I,v;b;n;m,legacy,I have read and understood the information shown above,legacy,legacy,#ffef36,0,neutral,uniform,1,1,1,NA,0,0,0,0,0,97,97,97,97,97,0,0,5,0,97,97,0,0,NA,0,97,0,97,NA,0,97,97,Thu Dec  8 18:27:41 2016,The main experiment item,yes,m,IC_RSI2000.osexp,/Users/Muki/Documents/Labor/Bence Stroop,no,mono,no,18,no,black,no,Ok,NA,no,Male,800,legacy,C:/Users/User/Dropbox/Sussex/Consciousness and control/Exp 1 - stroop suggestion and PCE/Methods/Palfi_script/laptop_size/subject-14_CI.csv,legacy,Interactive Ising,3.0.7,0,m,m,space,NA,759,759,11911,NA,2,legacy,1024,2,48000,-16,experiment,0,even,NA,218038,96886,101675,92399,398320,397721,398277,399090,400100,206126,NA,206126,66167,399337,397764,NA,47918,NA,NA,385138,47920,400550,NA,104120,397710,398320,Stroop CI,92,113059,102,yes,1280,KNIFE
52,90.29126214,yes,90.29126214,20,1103,1103,#ffffff,no,I,v;b;n;m,legacy,I have read and understood the information shown above,legacy,legacy,green,0,inc,uniform,1,1,1,NA,0,0,0,0,0,98,98,98,98,98,0,0,5,0,98,98,0,0,NA,0,98,0,98,NA,0,98,98,Thu Dec  8 18:27:41 2016,The main experiment item,yes,n,IC_RSI2000.osexp,/Users/Muki/Documents/Labor/Bence Stroop,no,mono,no,18,no,black,no,Ok,NA,no,Male,800,legacy,C:/Users/User/Dropbox/Sussex/Consciousness and control/Exp 1 - stroop suggestion and PCE/Methods/Palfi_script/laptop_size/subject-14_CI.csv,legacy,Interactive Ising,3.0.7,0,n,n,space,NA,621,621,11911,NA,2,legacy,1024,2,48000,-16,experiment,0,even,NA,218038,96886,101675,92399,401231,400627,401182,401863,402875,206126,NA,206126,66167,402110,400671,NA,47918,NA,NA,385138,47920,403325,NA,104120,400616,401231,Stroop CI,93,113680,103,yes,1280,RED
7,90.38461538,yes,90.38461538,20,1100,1100,#ffffff,no,I,v;b;n;m,legacy,I have read and understood the information shown above,legacy,legacy,red,0,inc,uniform,1,1,1,NA,0,0,0,0,0,99,99,99,99,99,0,0,5,0,99,99,0,0,NA,0,99,0,99,NA,0,99,99,Thu Dec  8 18:27:41 2016,The main experiment item,yes,v,IC_RSI2000.osexp,/Users/Muki/Documents/Labor/Bence Stroop,no,mono,no,18,no,black,no,Ok,NA,no,Male,800,legacy,C:/Users/User/Dropbox/Sussex/Consciousness and control/Exp 1 - stroop suggestion and PCE/Methods/Palfi_script/laptop_size/subject-14_CI.csv,legacy,Interactive Ising,3.0.7,0,v,v,space,NA,812,812,11911,NA,2,legacy,1024,2,48000,-16,experiment,0,even,NA,218038,96886,101675,92399,404002,403401,403960,404825,405834,206126,NA,206126,66167,405071,403448,NA,47918,NA,NA,385138,47920,406284,NA,104120,403390,404002,Stroop CI,94,114492,104,yes,1280,BLUE
94,90.47619048,yes,90.47619048,20,1096,1096,#ffffff,no,I,v;b;n;m,legacy,I have read and understood the information shown above,legacy,legacy,#ffef36,0,inc,uniform,1,1,1,NA,0,0,0,0,0,100,100,100,100,100,0,0,5,0,100,100,0,0,NA,0,100,0,100,NA,0,100,100,Thu Dec  8 18:27:41 2016,The main experiment item,yes,m,IC_RSI2000.osexp,/Users/Muki/Documents/Labor/Bence Stroop,no,mono,no,18,no,black,no,Ok,NA,no,Male,800,legacy,C:/Users/User/Dropbox/Sussex/Consciousness and control/Exp 1 - stroop suggestion and PCE/Methods/Palfi_script/laptop_size/subject-14_CI.csv,legacy,Interactive Ising,3.0.7,0,m,m,space,NA,691,691,11911,NA,2,legacy,1024,2,48000,-16,experiment,0,even,NA,218038,96886,101675,92399,406968,406367,406921,407671,408683,206126,NA,206126,66167,407918,406410,NA,47918,NA,NA,385138,47920,409133,NA,104120,406355,406968,Stroop CI,95,115183,105,yes,1280,GREEN
57,90.56603774,yes,90.56603774,20,1096,1096,#ffffff,no,I,v;b;n;m,legacy,I have read and understood the information shown above,legacy,legacy,green,0,inc,uniform,1,1,1,NA,0,0,0,0,0,101,101,101,101,101,0,0,5,0,101,101,0,0,NA,0,101,0,101,NA,0,101,101,Thu Dec  8 18:27:41 2016,The main experiment item,yes,n,IC_RSI2000.osexp,/Users/Muki/Documents/Labor/Bence Stroop,no,mono,no,18,no,black,no,Ok,NA,no,Male,800,legacy,C:/Users/User/Dropbox/Sussex/Consciousness and control/Exp 1 - stroop suggestion and PCE/Methods/Palfi_script/laptop_size/subject-14_CI.csv,legacy,Interactive Ising,3.0.7,0,n,n,space,NA,1075,1075,11911,NA,2,legacy,1024,2,48000,-16,experiment,0,even,NA,218038,96886,101675,92399,409826,409217,409775,410912,411923,206126,NA,206126,66167,411158,409261,NA,47918,NA,NA,385138,47920,412373,NA,104120,409205,409825,Stroop CI,96,116258,106,yes,1280,BLUE
108,90.65420561,yes,90.65420561,20,1093,1093,#ffffff,no,I,v;b;n;m,legacy,I have read and understood the information shown above,legacy,legacy,#ffef36,0,con,uniform,1,1,1,NA,0,0,0,0,0,102,102,102,102,102,0,0,5,0,102,102,0,0,NA,0,102,0,102,NA,0,102,102,Thu Dec  8 18:27:41 2016,The main experiment item,yes,m,IC_RSI2000.osexp,/Users/Muki/Documents/Labor/Bence Stroop,no,mono,no,18,no,black,no,Ok,NA,no,Male,800,legacy,C:/Users/User/Dropbox/Sussex/Consciousness and control/Exp 1 - stroop suggestion and PCE/Methods/Palfi_script/laptop_size/subject-14_CI.csv,legacy,Interactive Ising,3.0.7,0,m,m,space,NA,709,709,11911,NA,2,legacy,1024,2,48000,-16,experiment,0,even,NA,218038,96886,101675,92399,413049,412446,413004,413771,414785,206126,NA,206126,66167,414020,412494,NA,47918,NA,NA,385138,47920,415235,NA,104120,412435,413049,Stroop CI,97,116967,107,yes,1280,YELLOW
27,90.74074074,yes,90.74074074,20,1092,1092,#ffffff,no,I,v;b;n;m,legacy,I have read and understood the information shown above,legacy,legacy,blue,0,inc,uniform,1,1,1,NA,0,0,0,0,0,103,103,103,103,103,0,0,5,0,103,103,0,0,NA,0,103,0,103,NA,0,103,103,Thu Dec  8 18:27:41 2016,The main experiment item,yes,b,IC_RSI2000.osexp,/Users/Muki/Documents/Labor/Bence Stroop,no,mono,no,18,no,black,no,Ok,NA,no,Male,800,legacy,C:/Users/User/Dropbox/Sussex/Consciousness and control/Exp 1 - stroop suggestion and PCE/Methods/Palfi_script/laptop_size/subject-14_CI.csv,legacy,Interactive Ising,3.0.7,0,b,b,space,NA,982,982,11911,NA,2,legacy,1024,2,48000,-16,experiment,0,even,NA,218038,96886,101675,92399,415914,415309,415870,416908,417925,206126,NA,206126,66167,417158,415354,NA,47918,NA,NA,385138,47920,418375,NA,104120,415299,415914,Stroop CI,98,117949,108,yes,1280,RED
30,90.82568807,yes,90.82568807,20,1091,1091,#ffffff,no,I,v;b;n;m,legacy,I have read and understood the information shown above,legacy,legacy,blue,0,inc,uniform,1,1,1,NA,0,0,0,0,0,104,104,104,104,104,0,0,5,0,104,104,0,0,NA,0,104,0,104,NA,0,104,104,Thu Dec  8 18:27:41 2016,The main experiment item,yes,b,IC_RSI2000.osexp,/Users/Muki/Documents/Labor/Bence Stroop,no,mono,no,18,no,black,no,Ok,NA,no,Male,800,legacy,C:/Users/User/Dropbox/Sussex/Consciousness and control/Exp 1 - stroop suggestion and PCE/Methods/Palfi_script/laptop_size/subject-14_CI.csv,legacy,Interactive Ising,3.0.7,0,b,b,space,NA,1061,1061,11911,NA,2,legacy,1024,2,48000,-16,experiment,0,even,NA,218038,96886,101675,92399,419055,418449,419007,420127,421145,206126,NA,206126,66167,420377,418496,NA,47918,NA,NA,385138,47920,421595,NA,104120,418438,419055,Stroop CI,99,119010,109,yes,1280,RED
72,90.90909091,yes,90.90909091,20,1090,1090,#ffffff,no,I,v;b;n;m,legacy,I have read and understood the information shown above,legacy,legacy,green,0,inc,uniform,1,1,1,NA,0,0,0,0,0,105,105,105,105,105,0,0,5,0,105,105,0,0,NA,0,105,0,105,NA,0,105,105,Thu Dec  8 18:27:41 2016,The main experiment item,yes,n,IC_RSI2000.osexp,/Users/Muki/Documents/Labor/Bence Stroop,no,mono,no,18,no,black,no,Ok,NA,no,Male,800,legacy,C:/Users/User/Dropbox/Sussex/Consciousness and control/Exp 1 - stroop suggestion and PCE/Methods/Palfi_script/laptop_size/subject-14_CI.csv,legacy,Interactive Ising,3.0.7,0,n,n,space,NA,905,905,11911,NA,2,legacy,1024,2,48000,-16,experiment,0,even,NA,218038,96886,101675,92399,422331,421722,422283,423248,424265,206126,NA,206126,66167,423495,421767,NA,47918,NA,NA,385138,47920,424715,NA,104120,421710,422331,Stroop CI,100,119915,110,yes,1280,YELLOW
1,90.99099099,yes,90.99099099,20,1090,1090,#ffffff,no,I,v;b;n;m,legacy,I have read and understood the information shown above,legacy,legacy,red,0,inc,uniform,1,1,1,NA,0,0,0,0,0,106,106,106,106,106,0,0,5,0,106,106,0,0,NA,0,106,0,106,NA,0,106,106,Thu Dec  8 18:27:41 2016,The main experiment item,yes,v,IC_RSI2000.osexp,/Users/Muki/Documents/Labor/Bence Stroop,no,mono,no,18,no,black,no,Ok,NA,no,Male,800,legacy,C:/Users/User/Dropbox/Sussex/Consciousness and control/Exp 1 - stroop suggestion and PCE/Methods/Palfi_script/laptop_size/subject-14_CI.csv,legacy,Interactive Ising,3.0.7,0,v,v,space,NA,1171,1171,11911,NA,2,legacy,1024,2,48000,-16,experiment,0,even,NA,218038,96886,101675,92399,425385,424781,425338,426568,427577,206126,NA,206126,66167,426815,424825,NA,47918,NA,NA,385138,47920,428027,NA,104120,424769,425385,Stroop CI,101,121086,111,yes,1280,BLUE
12,91.07142857,yes,91.07142857,20,1092,1092,#ffffff,no,I,v;b;n;m,legacy,I have read and understood the information shown above,legacy,legacy,red,0,inc,uniform,1,1,1,NA,0,0,0,0,0,107,107,107,107,107,0,0,5,0,107,107,0,0,NA,0,107,0,107,NA,0,107,107,Thu Dec  8 18:27:41 2016,The main experiment item,yes,v,IC_RSI2000.osexp,/Users/Muki/Documents/Labor/Bence Stroop,no,mono,no,18,no,black,no,Ok,NA,no,Male,800,legacy,C:/Users/User/Dropbox/Sussex/Consciousness and control/Exp 1 - stroop suggestion and PCE/Methods/Palfi_script/laptop_size/subject-14_CI.csv,legacy,Interactive Ising,3.0.7,0,v,v,space,NA,1297,1297,11911,NA,2,legacy,1024,2,48000,-16,experiment,0,even,NA,218038,96886,101675,92399,428697,428096,428652,430005,431017,206126,NA,206126,66167,430253,428140,NA,47918,NA,NA,385138,47920,431467,NA,104120,428085,428697,Stroop CI,102,122383,112,yes,1280,GREEN
88,91.15044248,yes,91.15044248,20,1090,1090,#ffffff,no,I,v;b;n;m,legacy,I have read and understood the information shown above,legacy,legacy,#ffef36,0,inc,uniform,1,1,1,NA,0,0,0,0,0,108,108,108,108,108,0,0,5,0,108,108,0,0,NA,0,108,0,108,NA,0,108,108,Thu Dec  8 18:27:41 2016,The main experiment item,yes,m,IC_RSI2000.osexp,/Users/Muki/Documents/Labor/Bence Stroop,no,mono,no,18,no,black,no,Ok,NA,no,Male,800,legacy,C:/Users/User/Dropbox/Sussex/Consciousness and control/Exp 1 - stroop suggestion and PCE/Methods/Palfi_script/laptop_size/subject-14_CI.csv,legacy,Interactive Ising,3.0.7,0,m,m,space,NA,895,895,11911,NA,2,legacy,1024,2,48000,-16,experiment,0,even,NA,218038,96886,101675,92399,432132,431531,432087,433039,434053,206126,NA,206126,66167,433291,431576,NA,47918,NA,NA,385138,47920,434503,NA,104120,431519,432132,Stroop CI,103,123278,113,yes,1280,BLUE
112,91.22807018,yes,91.22807018,20,1087,1087,#ffffff,no,I,v;b;n;m,legacy,I have read and understood the information shown above,legacy,legacy,blue,0,neutral,uniform,1,1,1,NA,0,0,0,0,0,109,109,109,109,109,0,0,5,0,109,109,0,0,NA,0,109,0,109,NA,0,109,109,Thu Dec  8 18:27:41 2016,The main experiment item,yes,b,IC_RSI2000.osexp,/Users/Muki/Documents/Labor/Bence Stroop,no,mono,no,18,no,black,no,Ok,NA,no,Male,800,legacy,C:/Users/User/Dropbox/Sussex/Consciousness and control/Exp 1 - stroop suggestion and PCE/Methods/Palfi_script/laptop_size/subject-14_CI.csv,legacy,Interactive Ising,3.0.7,0,b,b,space,NA,733,733,11911,NA,2,legacy,1024,2,48000,-16,experiment,0,even,NA,218038,96886,101675,92399,435171,434571,435126,435919,436930,206126,NA,206126,66167,436166,434614,NA,47918,NA,NA,385138,47920,437381,NA,104120,434560,435171,Stroop CI,104,124011,114,yes,1280,LOT
74,91.30434783,yes,91.30434783,20,1084,1084,#ffffff,no,I,v;b;n;m,legacy,I have read and understood the information shown above,legacy,legacy,#ffef36,0,inc,uniform,1,1,1,NA,0,0,0,0,0,110,110,110,110,110,0,0,5,0,110,110,0,0,NA,0,110,0,110,NA,0,110,110,Thu Dec  8 18:27:41 2016,The main experiment item,yes,m,IC_RSI2000.osexp,/Users/Muki/Documents/Labor/Bence Stroop,no,mono,no,18,no,black,no,Ok,NA,no,Male,800,legacy,C:/Users/User/Dropbox/Sussex/Consciousness and control/Exp 1 - stroop suggestion and PCE/Methods/Palfi_script/laptop_size/subject-14_CI.csv,legacy,Interactive Ising,3.0.7,0,m,m,space,NA,756,756,11911,NA,2,legacy,1024,2,48000,-16,experiment,0,even,NA,218038,96886,101675,92399,438051,437443,438007,438819,439831,206126,NA,206126,66167,439066,437494,NA,47918,NA,NA,385138,47920,440281,NA,104120,437432,438051,Stroop CI,105,124767,115,yes,1280,RED
85,91.37931034,yes,91.37931034,20,1082,1082,#ffffff,no,I,v;b;n;m,legacy,I have read and understood the information shown above,legacy,legacy,#ffef36,0,inc,uniform,1,1,1,NA,0,0,0,0,0,111,111,111,111,111,0,0,5,0,111,111,0,0,NA,0,111,0,111,NA,0,111,111,Thu Dec  8 18:27:41 2016,The main experiment item,yes,m,IC_RSI2000.osexp,/Users/Muki/Documents/Labor/Bence Stroop,no,mono,no,18,no,black,no,Ok,NA,no,Male,800,legacy,C:/Users/User/Dropbox/Sussex/Consciousness and control/Exp 1 - stroop suggestion and PCE/Methods/Palfi_script/laptop_size/subject-14_CI.csv,legacy,Interactive Ising,3.0.7,0,m,m,space,NA,852,852,11911,NA,2,legacy,1024,2,48000,-16,experiment,0,even,NA,218038,96886,101675,92399,440962,440361,440917,441826,442838,206126,NA,206126,66167,442072,440405,NA,47918,NA,NA,385138,47920,443288,NA,104120,440345,440962,Stroop CI,106,125619,116,yes,1280,BLUE
110,91.45299145,yes,91.45299145,20,1080,1080,#ffffff,no,I,v;b;n;m,legacy,I have read and understood the information shown above,legacy,legacy,red,0,neutral,uniform,1,1,1,NA,0,0,0,0,0,112,112,112,112,112,0,0,5,0,112,112,0,0,NA,0,112,0,112,NA,0,112,112,Thu Dec  8 18:27:41 2016,The main experiment item,yes,v,IC_RSI2000.osexp,/Users/Muki/Documents/Labor/Bence Stroop,no,mono,no,18,no,black,no,Ok,NA,no,Male,800,legacy,C:/Users/User/Dropbox/Sussex/Consciousness and control/Exp 1 - stroop suggestion and PCE/Methods/Palfi_script/laptop_size/subject-14_CI.csv,legacy,Interactive Ising,3.0.7,0,v,v,space,NA,813,813,11911,NA,2,legacy,1024,2,48000,-16,experiment,0,even,NA,218038,96886,101675,92399,443950,443347,443901,444774,445788,206126,NA,206126,66167,445022,443390,NA,47918,NA,NA,385138,47920,446238,NA,104120,443337,443950,Stroop CI,107,126432,117,yes,1280,KNIFE
104,90.6779661,yes,90.6779661,20,1078,1078,#ffffff,no,I,v;b;n;m,legacy,I have read and understood the information shown above,legacy,legacy,green,0,con,uniform,0,0,1,NA,0,0,0,0,0,113,113,113,113,113,0,0,5,0,113,113,0,0,NA,0,113,0,113,NA,0,113,113,Thu Dec  8 18:27:41 2016,The main experiment item,yes,n,IC_RSI2000.osexp,/Users/Muki/Documents/Labor/Bence Stroop,no,mono,no,18,no,black,no,Ok,NA,no,Male,800,legacy,C:/Users/User/Dropbox/Sussex/Consciousness and control/Exp 1 - stroop suggestion and PCE/Methods/Palfi_script/laptop_size/subject-14_CI.csv,legacy,Interactive Ising,3.0.7,0,m,m,space,NA,794,794,11911,NA,2,legacy,1024,2,48000,-16,experiment,0,even,NA,218038,96886,101675,92399,446927,446321,446882,447733,448750,206126,NA,206126,66167,445022,446367,NA,47918,NA,NA,447984,47920,449200,NA,104120,446306,446926,Stroop CI,107,127226,118,yes,1280,GREEN
23,90.75630252,yes,90.75630252,20,1077,1077,#ffffff,no,I,v;b;n;m,legacy,I have read and understood the information shown above,legacy,legacy,red,0,inc,uniform,1,1,1,NA,0,0,0,0,0,114,114,114,114,114,0,0,5,0,114,114,0,0,NA,0,114,0,114,NA,0,114,114,Thu Dec  8 18:27:41 2016,The main experiment item,yes,v,IC_RSI2000.osexp,/Users/Muki/Documents/Labor/Bence Stroop,no,mono,no,18,no,black,no,Ok,NA,no,Male,800,legacy,C:/Users/User/Dropbox/Sussex/Consciousness and control/Exp 1 - stroop suggestion and PCE/Methods/Palfi_script/laptop_size/subject-14_CI.csv,legacy,Interactive Ising,3.0.7,0,v,v,space,NA,1000,1000,11911,NA,2,legacy,1024,2,48000,-16,experiment,0,even,NA,218038,96886,101675,92399,449868,449268,449825,450880,451889,206126,NA,206126,66167,451126,449313,NA,47918,NA,NA,447984,47920,452339,NA,104120,449257,449868,Stroop CI,108,128226,119,yes,1280,YELLOW
89,90.83333333,yes,90.83333333,20,1074,1074,#ffffff,no,I,v;b;n;m,legacy,I have read and understood the information shown above,legacy,legacy,#ffef36,0,inc,uniform,1,1,1,NA,0,0,0,0,0,115,115,115,115,115,0,0,5,0,115,115,0,0,NA,0,115,0,115,NA,0,115,115,Thu Dec  8 18:27:41 2016,The main experiment item,yes,m,IC_RSI2000.osexp,/Users/Muki/Documents/Labor/Bence Stroop,no,mono,no,18,no,black,no,Ok,NA,no,Male,800,legacy,C:/Users/User/Dropbox/Sussex/Consciousness and control/Exp 1 - stroop suggestion and PCE/Methods/Palfi_script/laptop_size/subject-14_CI.csv,legacy,Interactive Ising,3.0.7,0,m,m,space,NA,767,767,11911,NA,2,legacy,1024,2,48000,-16,experiment,0,even,NA,218038,96886,101675,92399,453036,452436,452993,453815,454824,206126,NA,206126,66167,454061,452479,NA,47918,NA,NA,447984,47920,455274,NA,104120,452422,453036,Stroop CI,109,128993,120,yes,1280,GREEN
