ID,acc,accept_status,accuracy,age,average_response_time,avg_rt,background,bidi,block,buttons,canvas_backend,checkbox_status,clock_backend,color_backend,colour,compensation,congruency,coordinates,correct,correct_answer,correct_button_block,correct_new_keyboard_response,count_C,count_I,count_Instruction,count_Practice_start,count_age,count_answer,count_blank,count_blank2,count_blank3,count_blank_4,count_break,count_break2,count_button_block,count_consent_form,count_correct_feedback,count_cross,count_end,count_experiment,count_feedback,count_gender,count_incorrect_feedback,count_information_sheet,count_logger,count_new_keyboard_response,count_practice,count_stroop,count_target,datetime,description,disable_garbage_collection,expected,experiment_file,experiment_path,font_bold,font_family,font_italic,font_size,font_underline,foreground,form_clicks,form_response,form_var,fullscreen,gender,height,keyboard_backend,live_row,live_row_practice,logfile,mouse_backend,opensesame_codename,opensesame_version,repeat_cycle,response,response_answer,response_button_block,response_new_keyboard_response,response_time,response_time_answer,response_time_button_block,response_time_new_keyboard_response,round_decimals,sampler_backend,sound_buf_size,sound_channels,sound_freq,sound_sample_size,start,subject_nr,subject_parity,time_C,time_I,time_Instruction,time_Practice_start,time_age,time_answer,time_blank,time_blank2,time_blank3,time_blank_4,time_break,time_break2,time_button_block,time_consent_form,time_correct_feedback,time_cross,time_end,time_experiment,time_feedback,time_gender,time_incorrect_feedback,time_information_sheet,time_logger,time_new_keyboard_response,time_practice,time_stroop,time_target,title,total_correct,total_response_time,total_responses,uniform_coordinates,width,word
36,75,yes,75,21,39428.5,39428.5,#ffffff,no,practice,v;b;n;m,legacy,I have read and understood the information shown above,legacy,legacy,#ffef36,0,neutral,uniform,0,0,1,NA,0,0,0,0,0,0,0,0,0,0,0,0,5,0,0,0,0,0,NA,0,0,0,0,NA,0,0,0,12/07/2016 14:49,The main experiment item,yes,m,CI_RSI2000.osexp,C:\Users\Marci\Documents\Lab,no,mono,no,18,no,black,no,Ok,NA,yes,Male,768,legacy,0,0,C:/Users/User/Dropbox/Sussex/Consciousness and control/Exp 1 - stroop suggestion and PCE/Methods/Palfi_script/laptop_size/subject-8.csv,legacy,Jazzy James,3.1.4,0,b,b,space,NA,1988,1988,74570,NA,2,legacy,1024,2,48000,-16,experiment,0,even,NA,NA,90429,141239,85316,145239,144667,145204,147230,148218,NA,NA,70019,70019,NA,144702,NA,2399,NA,NA,147466,2399,148668,NA,144589,144664,145239,Stroop CI,3,157714,4,yes,1366,KNIFE
31,80,yes,80,21,31754.8,31754.8,#ffffff,no,practice,v;b;n;m,legacy,I have read and understood the information shown above,legacy,legacy,green,0,neutral,uniform,1,1,1,NA,0,0,0,0,0,1,1,1,1,1,0,0,5,0,1,1,0,0,NA,0,1,0,1,NA,0,1,1,12/07/2016 14:49,The main experiment item,yes,n,CI_RSI2000.osexp,C:\Users\Marci\Documents\Lab,no,mono,no,18,no,black,no,Ok,NA,yes,Male,768,legacy,1,1,C:/Users/User/Dropbox/Sussex/Consciousness and control/Exp 1 - stroop suggestion and PCE/Methods/Palfi_script/laptop_size/subject-8.csv,legacy,Jazzy James,3.1.4,0,n,n,space,NA,1060,1060,74570,NA,2,legacy,1024,2,48000,-16,experiment,0,even,NA,NA,90429,141239,85316,149417,148845,149382,150480,151468,NA,NA,70019,70019,150716,148880,NA,2399,NA,NA,147466,2399,151918,NA,144589,148842,149417,Stroop CI,4,158774,5,yes,1366,LOT
33,83.33333333,yes,83.33333333,21,26610.66667,26610.66667,#ffffff,no,practice,v;b;n;m,legacy,I have read and understood the information shown above,legacy,legacy,green,0,neutral,uniform,1,1,1,NA,0,0,0,0,0,2,2,2,2,2,0,0,5,0,2,2,0,0,NA,0,2,0,2,NA,0,2,2,12/07/2016 14:49,The main experiment item,yes,n,CI_RSI2000.osexp,C:\Users\Marci\Documents\Lab,no,mono,no,18,no,black,no,Ok,NA,yes,Male,768,legacy,2,2,C:/Users/User/Dropbox/Sussex/Consciousness and control/Exp 1 - stroop suggestion and PCE/Methods/Palfi_script/laptop_size/subject-8.csv,legacy,Jazzy James,3.1.4,0,n,n,space,NA,890,890,74570,NA,2,legacy,1024,2,48000,-16,experiment,0,even,NA,NA,90429,141239,85316,152653,152081,152618,153545,154533,NA,NA,70019,70019,153781,152116,NA,2399,NA,NA,147466,2399,154983,NA,144589,152079,152653,Stroop CI,5,159664,6,yes,1366,FLOWER
10,85.71428571,yes,85.71428571,21,22908,22908,#ffffff,no,practice,v;b;n;m,legacy,I have read and understood the information shown above,legacy,legacy,#ffef36,0,inc,uniform,1,1,1,NA,0,0,0,0,0,3,3,3,3,3,0,0,5,0,3,3,0,0,NA,0,3,0,3,NA,0,3,3,12/07/2016 14:49,The main experiment item,yes,m,CI_RSI2000.osexp,C:\Users\Marci\Documents\Lab,no,mono,no,18,no,black,no,Ok,NA,yes,Male,768,legacy,3,3,C:/Users/User/Dropbox/Sussex/Consciousness and control/Exp 1 - stroop suggestion and PCE/Methods/Palfi_script/laptop_size/subject-8.csv,legacy,Jazzy James,3.1.4,0,m,m,space,NA,692,692,74570,NA,2,legacy,1024,2,48000,-16,experiment,0,even,NA,NA,90429,141239,85316,155702,155130,155667,156397,157385,NA,NA,70019,70019,156633,155165,NA,2399,NA,NA,147466,2399,157835,NA,144589,155127,155702,Stroop CI,6,160356,7,yes,1366,RED
27,87.5,yes,87.5,21,20188.875,20188.875,#ffffff,no,practice,v;b;n;m,legacy,I have read and understood the information shown above,legacy,legacy,red,0,neutral,uniform,1,1,1,NA,0,0,0,0,0,4,4,4,4,4,0,0,5,0,4,4,0,0,NA,0,4,0,4,NA,0,4,4,12/07/2016 14:49,The main experiment item,yes,v,CI_RSI2000.osexp,C:\Users\Marci\Documents\Lab,no,mono,no,18,no,black,no,Ok,NA,yes,Male,768,legacy,4,4,C:/Users/User/Dropbox/Sussex/Consciousness and control/Exp 1 - stroop suggestion and PCE/Methods/Palfi_script/laptop_size/subject-8.csv,legacy,Jazzy James,3.1.4,0,v,v,space,NA,1155,1155,74570,NA,2,legacy,1024,2,48000,-16,experiment,0,even,NA,NA,90429,141239,85316,158543,157971,158508,159701,160689,NA,NA,70019,70019,159937,158006,NA,2399,NA,NA,147466,2399,161139,NA,144589,157968,158543,Stroop CI,7,161511,8,yes,1366,FLOWER
1,88.88888889,yes,88.88888889,21,18010.22222,18010.22222,#ffffff,no,practice,v;b;n;m,legacy,I have read and understood the information shown above,legacy,legacy,red,0,inc,uniform,1,1,1,NA,0,0,0,0,0,5,5,5,5,5,0,0,5,0,5,5,0,0,NA,0,5,0,5,NA,0,5,5,12/07/2016 14:49,The main experiment item,yes,v,CI_RSI2000.osexp,C:\Users\Marci\Documents\Lab,no,mono,no,18,no,black,no,Ok,NA,yes,Male,768,legacy,5,5,C:/Users/User/Dropbox/Sussex/Consciousness and control/Exp 1 - stroop suggestion and PCE/Methods/Palfi_script/laptop_size/subject-8.csv,legacy,Jazzy James,3.1.4,0,v,v,space,NA,581,581,74570,NA,2,legacy,1024,2,48000,-16,experiment,0,even,NA,NA,90429,141239,85316,161865,161293,161830,162449,163438,NA,NA,70019,70019,162685,161328,NA,2399,NA,NA,147466,2399,163888,NA,144589,161290,161865,Stroop CI,8,162092,9,yes,1366,BLUE
7,90,yes,90,21,16267.8,16267.8,#ffffff,no,practice,v;b;n;m,legacy,I have read and understood the information shown above,legacy,legacy,green,0,inc,uniform,1,1,1,NA,0,0,0,0,0,6,6,6,6,6,0,0,5,0,6,6,0,0,NA,0,6,0,6,NA,0,6,6,12/07/2016 14:49,The main experiment item,yes,n,CI_RSI2000.osexp,C:\Users\Marci\Documents\Lab,no,mono,no,18,no,black,no,Ok,NA,yes,Male,768,legacy,6,6,C:/Users/User/Dropbox/Sussex/Consciousness and control/Exp 1 - stroop suggestion and PCE/Methods/Palfi_script/laptop_size/subject-8.csv,legacy,Jazzy James,3.1.4,0,n,n,space,NA,586,586,74570,NA,2,legacy,1024,2,48000,-16,experiment,0,even,NA,NA,90429,141239,85316,164586,164014,164551,165175,166163,NA,NA,70019,70019,165411,164049,NA,2399,NA,NA,147466,2399,166613,NA,144589,164012,164586,Stroop CI,9,162678,10,yes,1366,RED
18,90.90909091,yes,90.90909091,21,14854.63636,14854.63636,#ffffff,no,practice,v;b;n;m,legacy,I have read and understood the information shown above,legacy,legacy,blue,0,con,uniform,1,1,1,NA,0,0,0,0,0,7,7,7,7,7,0,0,5,0,7,7,0,0,NA,0,7,0,7,NA,0,7,7,12/07/2016 14:49,The main experiment item,yes,b,CI_RSI2000.osexp,C:\Users\Marci\Documents\Lab,no,mono,no,18,no,black,no,Ok,NA,yes,Male,768,legacy,7,7,C:/Users/User/Dropbox/Sussex/Consciousness and control/Exp 1 - stroop suggestion and PCE/Methods/Palfi_script/laptop_size/subject-8.csv,legacy,Jazzy James,3.1.4,0,b,b,space,NA,723,723,74570,NA,2,legacy,1024,2,48000,-16,experiment,0,even,NA,NA,90429,141239,85316,167298,166726,167263,168024,169012,NA,NA,70019,70019,168260,166761,NA,2399,NA,NA,147466,2399,169462,NA,144589,166723,167298,Stroop CI,10,163401,11,yes,1366,BLUE
3,91.66666667,yes,91.66666667,21,13672.5,13672.5,#ffffff,no,practice,v;b;n;m,legacy,I have read and understood the information shown above,legacy,legacy,red,0,inc,uniform,1,1,1,NA,0,0,0,0,0,8,8,8,8,8,0,0,5,0,8,8,0,0,NA,0,8,0,8,NA,0,8,8,12/07/2016 14:49,The main experiment item,yes,v,CI_RSI2000.osexp,C:\Users\Marci\Documents\Lab,no,mono,no,18,no,black,no,Ok,NA,yes,Male,768,legacy,8,8,C:/Users/User/Dropbox/Sussex/Consciousness and control/Exp 1 - stroop suggestion and PCE/Methods/Palfi_script/laptop_size/subject-8.csv,legacy,Jazzy James,3.1.4,0,v,v,space,NA,669,669,74570,NA,2,legacy,1024,2,48000,-16,experiment,0,even,NA,NA,90429,141239,85316,170144,169572,170109,170815,171803,NA,NA,70019,70019,171051,169607,NA,2399,NA,NA,147466,2399,172253,NA,144589,169569,170144,Stroop CI,11,164070,12,yes,1366,YELLOW
26,92.30769231,yes,92.30769231,21,12669.30769,12669.30769,#ffffff,no,practice,v;b;n;m,legacy,I have read and understood the information shown above,legacy,legacy,red,0,neutral,uniform,1,1,1,NA,0,0,0,0,0,9,9,9,9,9,0,0,5,0,9,9,0,0,NA,0,9,0,9,NA,0,9,9,12/07/2016 14:49,The main experiment item,yes,v,CI_RSI2000.osexp,C:\Users\Marci\Documents\Lab,no,mono,no,18,no,black,no,Ok,NA,yes,Male,768,legacy,9,9,C:/Users/User/Dropbox/Sussex/Consciousness and control/Exp 1 - stroop suggestion and PCE/Methods/Palfi_script/laptop_size/subject-8.csv,legacy,Jazzy James,3.1.4,0,v,v,space,NA,631,631,74570,NA,2,legacy,1024,2,48000,-16,experiment,0,even,NA,NA,90429,141239,85316,172963,172391,172928,173597,174585,NA,NA,70019,70019,173833,172426,NA,2399,NA,NA,147466,2399,175035,NA,144589,172389,172963,Stroop CI,12,164701,13,yes,1366,KNIFE
15,92.85714286,yes,92.85714286,21,11794.35714,11794.35714,#ffffff,no,practice,v;b;n;m,legacy,I have read and understood the information shown above,legacy,legacy,red,0,con,uniform,1,1,1,NA,0,0,0,0,0,10,10,10,10,10,0,0,5,0,10,10,0,0,NA,0,10,0,10,NA,0,10,10,12/07/2016 14:49,The main experiment item,yes,v,CI_RSI2000.osexp,C:\Users\Marci\Documents\Lab,no,mono,no,18,no,black,no,Ok,NA,yes,Male,768,legacy,10,10,C:/Users/User/Dropbox/Sussex/Consciousness and control/Exp 1 - stroop suggestion and PCE/Methods/Palfi_script/laptop_size/subject-8.csv,legacy,Jazzy James,3.1.4,0,v,v,space,NA,420,420,74570,NA,2,legacy,1024,2,48000,-16,experiment,0,even,NA,NA,90429,141239,85316,175760,175188,175725,176183,177171,NA,NA,70019,70019,176419,175223,NA,2399,NA,NA,147466,2399,177621,NA,144589,175185,175760,Stroop CI,13,165121,14,yes,1366,RED
29,93.33333333,yes,93.33333333,21,11044.46667,11044.46667,#ffffff,no,practice,v;b;n;m,legacy,I have read and understood the information shown above,legacy,legacy,blue,0,neutral,uniform,1,1,1,NA,0,0,0,0,0,11,11,11,11,11,0,0,5,0,11,11,0,0,NA,0,11,0,11,NA,0,11,11,12/07/2016 14:49,The main experiment item,yes,b,CI_RSI2000.osexp,C:\Users\Marci\Documents\Lab,no,mono,no,18,no,black,no,Ok,NA,yes,Male,768,legacy,11,11,C:/Users/User/Dropbox/Sussex/Consciousness and control/Exp 1 - stroop suggestion and PCE/Methods/Palfi_script/laptop_size/subject-8.csv,legacy,Jazzy James,3.1.4,0,b,b,space,NA,546,546,74570,NA,2,legacy,1024,2,48000,-16,experiment,0,even,NA,NA,90429,141239,85316,178318,177746,178283,178867,179855,NA,NA,70019,70019,179103,177781,NA,2399,NA,NA,147466,2399,180305,NA,144589,177743,178318,Stroop CI,14,165667,15,yes,1366,KNIFE
20,93.75,yes,93.75,21,10375.25,10375.25,#ffffff,no,practice,v;b;n;m,legacy,I have read and understood the information shown above,legacy,legacy,green,0,con,uniform,1,1,1,NA,0,0,0,0,0,12,12,12,12,12,0,0,5,0,12,12,0,0,NA,0,12,0,12,NA,0,12,12,12/07/2016 14:49,The main experiment item,yes,n,CI_RSI2000.osexp,C:\Users\Marci\Documents\Lab,no,mono,no,18,no,black,no,Ok,NA,yes,Male,768,legacy,12,12,C:/Users/User/Dropbox/Sussex/Consciousness and control/Exp 1 - stroop suggestion and PCE/Methods/Palfi_script/laptop_size/subject-8.csv,legacy,Jazzy James,3.1.4,0,n,n,space,NA,337,337,74570,NA,2,legacy,1024,2,48000,-16,experiment,0,even,NA,NA,90429,141239,85316,180988,180416,180953,181328,182316,NA,NA,70019,70019,181564,180451,NA,2399,NA,NA,147466,2399,182766,NA,144589,180413,180988,Stroop CI,15,166004,16,yes,1366,GREEN
6,88.23529412,yes,88.23529412,21,9807.529412,9807.529412,#ffffff,no,practice,v;b;n;m,legacy,I have read and understood the information shown above,legacy,legacy,blue,0,inc,uniform,0,0,1,NA,0,0,0,0,0,13,13,13,13,13,0,0,5,0,13,13,0,0,NA,0,13,0,13,NA,0,13,13,12/07/2016 14:49,The main experiment item,yes,b,CI_RSI2000.osexp,C:\Users\Marci\Documents\Lab,no,mono,no,18,no,black,no,Ok,NA,yes,Male,768,legacy,13,13,C:/Users/User/Dropbox/Sussex/Consciousness and control/Exp 1 - stroop suggestion and PCE/Methods/Palfi_script/laptop_size/subject-8.csv,legacy,Jazzy James,3.1.4,0,m,m,space,NA,724,724,74570,NA,2,legacy,1024,2,48000,-16,experiment,0,even,NA,NA,90429,141239,85316,183476,182904,183441,184203,185192,NA,NA,70019,70019,181564,182939,NA,2399,NA,NA,184440,2399,185642,NA,144589,182901,183476,Stroop CI,15,166728,17,yes,1366,YELLOW
13,88.88888889,yes,88.88888889,21,9295.222222,9295.222222,#ffffff,no,practice,v;b;n;m,legacy,I have read and understood the information shown above,legacy,legacy,red,0,con,uniform,1,1,1,NA,0,0,0,0,0,14,14,14,14,14,0,0,5,0,14,14,0,0,NA,0,14,0,14,NA,0,14,14,12/07/2016 14:49,The main experiment item,yes,v,CI_RSI2000.osexp,C:\Users\Marci\Documents\Lab,no,mono,no,18,no,black,no,Ok,NA,yes,Male,768,legacy,14,14,C:/Users/User/Dropbox/Sussex/Consciousness and control/Exp 1 - stroop suggestion and PCE/Methods/Palfi_script/laptop_size/subject-8.csv,legacy,Jazzy James,3.1.4,0,v,v,space,NA,586,586,74570,NA,2,legacy,1024,2,48000,-16,experiment,0,even,NA,NA,90429,141239,85316,186354,185782,186319,186943,187931,NA,NA,70019,70019,187179,185817,NA,2399,NA,NA,184440,2399,188381,NA,144589,185779,186354,Stroop CI,16,167314,18,yes,1366,RED
9,89.47368421,yes,89.47368421,21,8839.315789,8839.315789,#ffffff,no,practice,v;b;n;m,legacy,I have read and understood the information shown above,legacy,legacy,green,0,inc,uniform,1,1,1,NA,0,0,0,0,0,15,15,15,15,15,0,0,5,0,15,15,0,0,NA,0,15,0,15,NA,0,15,15,12/07/2016 14:49,The main experiment item,yes,n,CI_RSI2000.osexp,C:\Users\Marci\Documents\Lab,no,mono,no,18,no,black,no,Ok,NA,yes,Male,768,legacy,15,15,C:/Users/User/Dropbox/Sussex/Consciousness and control/Exp 1 - stroop suggestion and PCE/Methods/Palfi_script/laptop_size/subject-8.csv,legacy,Jazzy James,3.1.4,0,n,n,space,NA,633,633,74570,NA,2,legacy,1024,2,48000,-16,experiment,0,even,NA,NA,90429,141239,85316,189093,188521,189058,189729,190717,NA,NA,70019,70019,189965,188556,NA,2399,NA,NA,184440,2399,191167,NA,144589,188519,189093,Stroop CI,17,167947,19,yes,1366,YELLOW
19,90,yes,90,21,8421.1,8421.1,#ffffff,no,practice,v;b;n;m,legacy,I have read and understood the information shown above,legacy,legacy,green,0,con,uniform,1,1,1,NA,0,0,0,0,0,16,16,16,16,16,0,0,5,0,16,16,0,0,NA,0,16,0,16,NA,0,16,16,12/07/2016 14:49,The main experiment item,yes,n,CI_RSI2000.osexp,C:\Users\Marci\Documents\Lab,no,mono,no,18,no,black,no,Ok,NA,yes,Male,768,legacy,16,16,C:/Users/User/Dropbox/Sussex/Consciousness and control/Exp 1 - stroop suggestion and PCE/Methods/Palfi_script/laptop_size/subject-8.csv,legacy,Jazzy James,3.1.4,0,n,n,space,NA,475,475,74570,NA,2,legacy,1024,2,48000,-16,experiment,0,even,NA,NA,90429,141239,85316,191866,191294,191831,192344,193332,NA,NA,70019,70019,192580,191329,NA,2399,NA,NA,184440,2399,193782,NA,144589,191291,191866,Stroop CI,18,168422,20,yes,1366,GREEN
28,90.47619048,yes,90.47619048,21,8053.714286,8053.714286,#ffffff,no,practice,v;b;n;m,legacy,I have read and understood the information shown above,legacy,legacy,blue,0,neutral,uniform,1,1,1,NA,0,0,0,0,0,17,17,17,17,17,0,0,5,0,17,17,0,0,NA,0,17,0,17,NA,0,17,17,12/07/2016 14:49,The main experiment item,yes,b,CI_RSI2000.osexp,C:\Users\Marci\Documents\Lab,no,mono,no,18,no,black,no,Ok,NA,yes,Male,768,legacy,17,17,C:/Users/User/Dropbox/Sussex/Consciousness and control/Exp 1 - stroop suggestion and PCE/Methods/Palfi_script/laptop_size/subject-8.csv,legacy,Jazzy James,3.1.4,0,b,b,space,NA,706,706,74570,NA,2,legacy,1024,2,48000,-16,experiment,0,even,NA,NA,90429,141239,85316,194497,193925,194462,195206,196195,NA,NA,70019,70019,195442,193960,NA,2399,NA,NA,184440,2399,196645,NA,144589,193923,194497,Stroop CI,19,169128,21,yes,1366,LOT
21,90.90909091,yes,90.90909091,21,7715.363636,7715.363636,#ffffff,no,practice,v;b;n;m,legacy,I have read and understood the information shown above,legacy,legacy,green,0,con,uniform,1,1,1,NA,0,0,0,0,0,18,18,18,18,18,0,0,5,0,18,18,0,0,NA,0,18,0,18,NA,0,18,18,12/07/2016 14:49,The main experiment item,yes,n,CI_RSI2000.osexp,C:\Users\Marci\Documents\Lab,no,mono,no,18,no,black,no,Ok,NA,yes,Male,768,legacy,18,18,C:/Users/User/Dropbox/Sussex/Consciousness and control/Exp 1 - stroop suggestion and PCE/Methods/Palfi_script/laptop_size/subject-8.csv,legacy,Jazzy James,3.1.4,0,n,n,space,NA,610,610,74570,NA,2,legacy,1024,2,48000,-16,experiment,0,even,NA,NA,90429,141239,85316,197334,196761,197298,197947,198935,NA,NA,70019,70019,198183,196796,NA,2399,NA,NA,184440,2399,199385,NA,144589,196759,197334,Stroop CI,20,169738,22,yes,1366,GREEN
12,91.30434783,yes,91.30434783,21,7403.391304,7403.391304,#ffffff,no,practice,v;b;n;m,legacy,I have read and understood the information shown above,legacy,legacy,#ffef36,0,inc,uniform,1,1,1,NA,0,0,0,0,0,19,19,19,19,19,0,0,5,0,19,19,0,0,NA,0,19,0,19,NA,0,19,19,12/07/2016 14:49,The main experiment item,yes,m,CI_RSI2000.osexp,C:\Users\Marci\Documents\Lab,no,mono,no,18,no,black,no,Ok,NA,yes,Male,768,legacy,19,19,C:/Users/User/Dropbox/Sussex/Consciousness and control/Exp 1 - stroop suggestion and PCE/Methods/Palfi_script/laptop_size/subject-8.csv,legacy,Jazzy James,3.1.4,0,m,m,space,NA,540,540,74570,NA,2,legacy,1024,2,48000,-16,experiment,0,even,NA,NA,90429,141239,85316,200103,199531,200068,200647,201635,NA,NA,70019,70019,200883,199566,NA,2399,NA,NA,184440,2399,202085,NA,144589,199528,200103,Stroop CI,21,170278,23,yes,1366,GREEN
25,91.66666667,yes,91.66666667,21,7124.541667,7124.541667,#ffffff,no,practice,v;b;n;m,legacy,I have read and understood the information shown above,legacy,legacy,red,0,neutral,uniform,1,1,1,NA,0,0,0,0,0,20,20,20,20,20,0,0,5,0,20,20,0,0,NA,0,20,0,20,NA,0,20,20,12/07/2016 14:49,The main experiment item,yes,v,CI_RSI2000.osexp,C:\Users\Marci\Documents\Lab,no,mono,no,18,no,black,no,Ok,NA,yes,Male,768,legacy,20,20,C:/Users/User/Dropbox/Sussex/Consciousness and control/Exp 1 - stroop suggestion and PCE/Methods/Palfi_script/laptop_size/subject-8.csv,legacy,Jazzy James,3.1.4,0,v,v,space,NA,711,711,74570,NA,2,legacy,1024,2,48000,-16,experiment,0,even,NA,NA,90429,141239,85316,202798,202226,202763,203512,204500,NA,NA,70019,70019,203748,202261,NA,2399,NA,NA,184440,2399,204950,NA,144589,202223,202798,Stroop CI,22,170989,24,yes,1366,SHIP
24,92,yes,92,21,6877.92,6877.92,#ffffff,no,practice,v;b;n;m,legacy,I have read and understood the information shown above,legacy,legacy,#ffef36,0,con,uniform,1,1,1,NA,0,0,0,0,0,21,21,21,21,21,0,0,5,0,21,21,0,0,NA,0,21,0,21,NA,0,21,21,12/07/2016 14:49,The main experiment item,yes,m,CI_RSI2000.osexp,C:\Users\Marci\Documents\Lab,no,mono,no,18,no,black,no,Ok,NA,yes,Male,768,legacy,21,21,C:/Users/User/Dropbox/Sussex/Consciousness and control/Exp 1 - stroop suggestion and PCE/Methods/Palfi_script/laptop_size/subject-8.csv,legacy,Jazzy James,3.1.4,0,m,m,space,NA,959,959,74570,NA,2,legacy,1024,2,48000,-16,experiment,0,even,NA,NA,90429,141239,85316,205631,205059,205596,206593,207581,NA,NA,70019,70019,206829,205094,NA,2399,NA,NA,184440,2399,208031,NA,144589,205056,205631,Stroop CI,23,171948,25,yes,1366,YELLOW
4,92.30769231,yes,92.30769231,21,6645.961538,6645.961538,#ffffff,no,practice,v;b;n;m,legacy,I have read and understood the information shown above,legacy,legacy,blue,0,inc,uniform,1,1,1,NA,0,0,0,0,0,22,22,22,22,22,0,0,5,0,22,22,0,0,NA,0,22,0,22,NA,0,22,22,12/07/2016 14:49,The main experiment item,yes,b,CI_RSI2000.osexp,C:\Users\Marci\Documents\Lab,no,mono,no,18,no,black,no,Ok,NA,yes,Male,768,legacy,22,22,C:/Users/User/Dropbox/Sussex/Consciousness and control/Exp 1 - stroop suggestion and PCE/Methods/Palfi_script/laptop_size/subject-8.csv,legacy,Jazzy James,3.1.4,0,b,b,space,NA,847,847,74570,NA,2,legacy,1024,2,48000,-16,experiment,0,even,NA,NA,90429,141239,85316,208753,208181,208718,209603,210591,NA,NA,70019,70019,209839,208216,NA,2399,NA,NA,184440,2399,211041,NA,144589,208178,208753,Stroop CI,24,172795,26,yes,1366,RED
17,92.59259259,yes,92.59259259,21,6423.185185,6423.185185,#ffffff,no,practice,v;b;n;m,legacy,I have read and understood the information shown above,legacy,legacy,blue,0,con,uniform,1,1,1,NA,0,0,0,0,0,23,23,23,23,23,0,0,5,0,23,23,0,0,NA,0,23,0,23,NA,0,23,23,12/07/2016 14:49,The main experiment item,yes,b,CI_RSI2000.osexp,C:\Users\Marci\Documents\Lab,no,mono,no,18,no,black,no,Ok,NA,yes,Male,768,legacy,23,23,C:/Users/User/Dropbox/Sussex/Consciousness and control/Exp 1 - stroop suggestion and PCE/Methods/Palfi_script/laptop_size/subject-8.csv,legacy,Jazzy James,3.1.4,0,b,b,space,NA,631,631,74570,NA,2,legacy,1024,2,48000,-16,experiment,0,even,NA,NA,90429,141239,85316,211755,211183,211720,212389,213377,NA,NA,70019,70019,212625,211218,NA,2399,NA,NA,184440,2399,213827,NA,144589,211180,211755,Stroop CI,25,173426,27,yes,1366,BLUE
11,92.85714286,yes,92.85714286,21,6216.75,6216.75,#ffffff,no,practice,v;b;n;m,legacy,I have read and understood the information shown above,legacy,legacy,#ffef36,0,inc,uniform,1,1,1,NA,0,0,0,0,0,24,24,24,24,24,0,0,5,0,24,24,0,0,NA,0,24,0,24,NA,0,24,24,12/07/2016 14:49,The main experiment item,yes,m,CI_RSI2000.osexp,C:\Users\Marci\Documents\Lab,no,mono,no,18,no,black,no,Ok,NA,yes,Male,768,legacy,24,24,C:/Users/User/Dropbox/Sussex/Consciousness and control/Exp 1 - stroop suggestion and PCE/Methods/Palfi_script/laptop_size/subject-8.csv,legacy,Jazzy James,3.1.4,0,m,m,space,NA,643,643,74570,NA,2,legacy,1024,2,48000,-16,experiment,0,even,NA,NA,90429,141239,85316,214542,213970,214507,215188,216176,NA,NA,70019,70019,215424,214005,NA,2399,NA,NA,184440,2399,216626,NA,144589,213968,214542,Stroop CI,26,174069,28,yes,1366,BLUE
23,93.10344828,yes,93.10344828,21,6015.068966,6015.068966,#ffffff,no,practice,v;b;n;m,legacy,I have read and understood the information shown above,legacy,legacy,#ffef36,0,con,uniform,1,1,1,NA,0,0,0,0,0,25,25,25,25,25,0,0,5,0,25,25,0,0,NA,0,25,0,25,NA,0,25,25,12/07/2016 14:49,The main experiment item,yes,m,CI_RSI2000.osexp,C:\Users\Marci\Documents\Lab,no,mono,no,18,no,black,no,Ok,NA,yes,Male,768,legacy,25,25,C:/Users/User/Dropbox/Sussex/Consciousness and control/Exp 1 - stroop suggestion and PCE/Methods/Palfi_script/laptop_size/subject-8.csv,legacy,Jazzy James,3.1.4,0,m,m,space,NA,368,368,74570,NA,2,legacy,1024,2,48000,-16,experiment,0,even,NA,NA,90429,141239,85316,217311,216739,217276,217682,218670,NA,NA,70019,70019,217918,216774,NA,2399,NA,NA,184440,2399,219120,NA,144589,216737,217311,Stroop CI,27,174437,29,yes,1366,YELLOW
32,93.33333333,yes,93.33333333,21,5826.5,5826.5,#ffffff,no,practice,v;b;n;m,legacy,I have read and understood the information shown above,legacy,legacy,green,0,neutral,uniform,1,1,1,NA,0,0,0,0,0,26,26,26,26,26,0,0,5,0,26,26,0,0,NA,0,26,0,26,NA,0,26,26,12/07/2016 14:49,The main experiment item,yes,n,CI_RSI2000.osexp,C:\Users\Marci\Documents\Lab,no,mono,no,18,no,black,no,Ok,NA,yes,Male,768,legacy,26,26,C:/Users/User/Dropbox/Sussex/Consciousness and control/Exp 1 - stroop suggestion and PCE/Methods/Palfi_script/laptop_size/subject-8.csv,legacy,Jazzy James,3.1.4,0,n,n,space,NA,358,358,74570,NA,2,legacy,1024,2,48000,-16,experiment,0,even,NA,NA,90429,141239,85316,219855,219282,219820,220216,221204,NA,NA,70019,70019,220452,219318,NA,2399,NA,NA,184440,2399,221654,NA,144589,219279,219855,Stroop CI,28,174795,30,yes,1366,SHIP
30,90.32258065,yes,90.32258065,21,5654.774194,5654.774194,#ffffff,no,practice,v;b;n;m,legacy,I have read and understood the information shown above,legacy,legacy,blue,0,neutral,uniform,0,0,1,NA,0,0,0,0,0,27,27,27,27,27,0,0,5,0,27,27,0,0,NA,0,27,0,27,NA,0,27,27,12/07/2016 14:49,The main experiment item,yes,b,CI_RSI2000.osexp,C:\Users\Marci\Documents\Lab,no,mono,no,18,no,black,no,Ok,NA,yes,Male,768,legacy,27,27,C:/Users/User/Dropbox/Sussex/Consciousness and control/Exp 1 - stroop suggestion and PCE/Methods/Palfi_script/laptop_size/subject-8.csv,legacy,Jazzy James,3.1.4,0,v,v,space,NA,503,503,74570,NA,2,legacy,1024,2,48000,-16,experiment,0,even,NA,NA,90429,141239,85316,222332,221760,222297,222838,223826,NA,NA,70019,70019,220452,221795,NA,2399,NA,NA,223074,2399,224276,NA,144589,221758,222332,Stroop CI,28,175298,31,yes,1366,FLOWER
22,90.625,yes,90.625,21,5494.84375,5494.84375,#ffffff,no,practice,v;b;n;m,legacy,I have read and understood the information shown above,legacy,legacy,#ffef36,0,con,uniform,1,1,1,NA,0,0,0,0,0,28,28,28,28,28,0,0,5,0,28,28,0,0,NA,0,28,0,28,NA,0,28,28,12/07/2016 14:49,The main experiment item,yes,m,CI_RSI2000.osexp,C:\Users\Marci\Documents\Lab,no,mono,no,18,no,black,no,Ok,NA,yes,Male,768,legacy,28,28,C:/Users/User/Dropbox/Sussex/Consciousness and control/Exp 1 - stroop suggestion and PCE/Methods/Palfi_script/laptop_size/subject-8.csv,legacy,Jazzy James,3.1.4,0,m,m,space,NA,537,537,74570,NA,2,legacy,1024,2,48000,-16,experiment,0,even,NA,NA,90429,141239,85316,224988,224416,224953,225528,226516,NA,NA,70019,70019,225764,224451,NA,2399,NA,NA,223074,2399,226966,NA,144589,224413,224988,Stroop CI,29,175835,32,yes,1366,YELLOW
5,90.90909091,yes,90.90909091,21,5350.151515,5350.151515,#ffffff,no,practice,v;b;n;m,legacy,I have read and understood the information shown above,legacy,legacy,blue,0,inc,uniform,1,1,1,NA,0,0,0,0,0,29,29,29,29,29,0,0,5,0,29,29,0,0,NA,0,29,0,29,NA,0,29,29,12/07/2016 14:49,The main experiment item,yes,b,CI_RSI2000.osexp,C:\Users\Marci\Documents\Lab,no,mono,no,18,no,black,no,Ok,NA,yes,Male,768,legacy,29,29,C:/Users/User/Dropbox/Sussex/Consciousness and control/Exp 1 - stroop suggestion and PCE/Methods/Palfi_script/laptop_size/subject-8.csv,legacy,Jazzy James,3.1.4,0,b,b,space,NA,720,720,74570,NA,2,legacy,1024,2,48000,-16,experiment,0,even,NA,NA,90429,141239,85316,227675,227103,227640,228398,229386,NA,NA,70019,70019,228634,227138,NA,2399,NA,NA,223074,2399,229836,NA,144589,227100,227675,Stroop CI,30,176555,33,yes,1366,GREEN
8,91.17647059,yes,91.17647059,21,5209.323529,5209.323529,#ffffff,no,practice,v;b;n;m,legacy,I have read and understood the information shown above,legacy,legacy,green,0,inc,uniform,1,1,1,NA,0,0,0,0,0,30,30,30,30,30,0,0,5,0,30,30,0,0,NA,0,30,0,30,NA,0,30,30,12/07/2016 14:49,The main experiment item,yes,n,CI_RSI2000.osexp,C:\Users\Marci\Documents\Lab,no,mono,no,18,no,black,no,Ok,NA,yes,Male,768,legacy,30,30,C:/Users/User/Dropbox/Sussex/Consciousness and control/Exp 1 - stroop suggestion and PCE/Methods/Palfi_script/laptop_size/subject-8.csv,legacy,Jazzy James,3.1.4,0,n,n,space,NA,562,562,74570,NA,2,legacy,1024,2,48000,-16,experiment,0,even,NA,NA,90429,141239,85316,230553,229981,230518,231118,232107,NA,NA,70019,70019,231355,230016,NA,2399,NA,NA,223074,2399,232557,NA,144589,229978,230553,Stroop CI,31,177117,34,yes,1366,BLUE
16,91.42857143,yes,91.42857143,21,5078.571429,5078.571429,#ffffff,no,practice,v;b;n;m,legacy,I have read and understood the information shown above,legacy,legacy,blue,0,con,uniform,1,1,1,NA,0,0,0,0,0,31,31,31,31,31,0,0,5,0,31,31,0,0,NA,0,31,0,31,NA,0,31,31,12/07/2016 14:49,The main experiment item,yes,b,CI_RSI2000.osexp,C:\Users\Marci\Documents\Lab,no,mono,no,18,no,black,no,Ok,NA,yes,Male,768,legacy,31,31,C:/Users/User/Dropbox/Sussex/Consciousness and control/Exp 1 - stroop suggestion and PCE/Methods/Palfi_script/laptop_size/subject-8.csv,legacy,Jazzy James,3.1.4,0,b,b,space,NA,633,633,74570,NA,2,legacy,1024,2,48000,-16,experiment,0,even,NA,NA,90429,141239,85316,233266,232694,233231,233902,234890,NA,NA,70019,70019,234138,232729,NA,2399,NA,NA,223074,2399,235340,NA,144589,232692,233266,Stroop CI,32,177750,35,yes,1366,BLUE
34,91.66666667,yes,91.66666667,21,4955.805556,4955.805556,#ffffff,no,practice,v;b;n;m,legacy,I have read and understood the information shown above,legacy,legacy,#ffef36,0,neutral,uniform,1,1,1,NA,0,0,0,0,0,32,32,32,32,32,0,0,5,0,32,32,0,0,NA,0,32,0,32,NA,0,32,32,12/07/2016 14:49,The main experiment item,yes,m,CI_RSI2000.osexp,C:\Users\Marci\Documents\Lab,no,mono,no,18,no,black,no,Ok,NA,yes,Male,768,legacy,32,32,C:/Users/User/Dropbox/Sussex/Consciousness and control/Exp 1 - stroop suggestion and PCE/Methods/Palfi_script/laptop_size/subject-8.csv,legacy,Jazzy James,3.1.4,0,m,m,space,NA,659,659,74570,NA,2,legacy,1024,2,48000,-16,experiment,0,even,NA,NA,90429,141239,85316,236058,235486,236023,236720,237708,NA,NA,70019,70019,236956,235521,NA,2399,NA,NA,223074,2399,238158,NA,144589,235484,236058,Stroop CI,33,178409,36,yes,1366,LOT
35,91.89189189,yes,91.89189189,21,4836.162162,4836.162162,#ffffff,no,practice,v;b;n;m,legacy,I have read and understood the information shown above,legacy,legacy,#ffef36,0,neutral,uniform,1,1,1,NA,0,0,0,0,0,33,33,33,33,33,0,0,5,0,33,33,0,0,NA,0,33,0,33,NA,0,33,33,12/07/2016 14:49,The main experiment item,yes,m,CI_RSI2000.osexp,C:\Users\Marci\Documents\Lab,no,mono,no,18,no,black,no,Ok,NA,yes,Male,768,legacy,33,33,C:/Users/User/Dropbox/Sussex/Consciousness and control/Exp 1 - stroop suggestion and PCE/Methods/Palfi_script/laptop_size/subject-8.csv,legacy,Jazzy James,3.1.4,0,m,m,space,NA,529,529,74570,NA,2,legacy,1024,2,48000,-16,experiment,0,even,NA,NA,90429,141239,85316,238866,238294,238831,239398,240386,NA,NA,70019,70019,239634,238329,NA,2399,NA,NA,223074,2399,240836,NA,144589,238292,238866,Stroop CI,34,178938,37,yes,1366,SHIP
14,92.10526316,yes,92.10526316,21,4724.894737,4724.894737,#ffffff,no,practice,v;b;n;m,legacy,I have read and understood the information shown above,legacy,legacy,red,0,con,uniform,1,1,1,NA,0,0,0,0,0,34,34,34,34,34,0,0,5,0,34,34,0,0,NA,0,34,0,34,NA,0,34,34,12/07/2016 14:49,The main experiment item,yes,v,CI_RSI2000.osexp,C:\Users\Marci\Documents\Lab,no,mono,no,18,no,black,no,Ok,NA,yes,Male,768,legacy,34,34,C:/Users/User/Dropbox/Sussex/Consciousness and control/Exp 1 - stroop suggestion and PCE/Methods/Palfi_script/laptop_size/subject-8.csv,legacy,Jazzy James,3.1.4,0,v,v,space,NA,608,608,74570,NA,2,legacy,1024,2,48000,-16,experiment,0,even,NA,NA,90429,141239,85316,241544,240972,241509,242155,243143,NA,NA,70019,70019,242391,241007,NA,2399,NA,NA,223074,2399,243593,NA,144589,240969,241544,Stroop CI,35,179546,38,yes,1366,RED
2,92.30769231,yes,92.30769231,21,4615.076923,4615.076923,#ffffff,no,practice,v;b;n;m,legacy,I have read and understood the information shown above,legacy,legacy,red,0,inc,uniform,1,1,1,NA,0,0,0,0,0,35,35,35,35,35,0,0,5,0,35,35,0,0,NA,0,35,0,35,NA,0,35,35,12/07/2016 14:49,The main experiment item,yes,v,CI_RSI2000.osexp,C:\Users\Marci\Documents\Lab,no,mono,no,18,no,black,no,Ok,NA,yes,Male,768,legacy,35,35,C:/Users/User/Dropbox/Sussex/Consciousness and control/Exp 1 - stroop suggestion and PCE/Methods/Palfi_script/laptop_size/subject-8.csv,legacy,Jazzy James,3.1.4,0,v,v,space,NA,442,442,74570,NA,2,legacy,1024,2,48000,-16,experiment,0,even,NA,NA,90429,141239,85316,244310,243738,244275,244755,245743,NA,NA,70019,70019,244991,243773,NA,2399,NA,NA,223074,2399,246193,NA,144589,243736,244310,Stroop CI,36,179988,39,yes,1366,GREEN
86,92.68292683,yes,92.68292683,21,9725.390244,9725.390244,#ffffff,no,C,v;b;n;m,legacy,I have read and understood the information shown above,legacy,legacy,green,0,con,uniform,1,1,1,NA,0,0,0,0,0,36,36,36,36,36,0,0,5,0,36,36,0,0,NA,0,36,0,36,NA,0,36,36,12/07/2016 14:49,The main experiment item,yes,n,CI_RSI2000.osexp,C:\Users\Marci\Documents\Lab,no,mono,no,18,no,black,no,Ok,NA,yes,Male,768,legacy,0,35,C:/Users/User/Dropbox/Sussex/Consciousness and control/Exp 1 - stroop suggestion and PCE/Methods/Palfi_script/laptop_size/subject-8.csv,legacy,Jazzy James,3.1.4,0,n,n,space,NA,672,672,218081,NA,2,legacy,1024,2,48000,-16,experiment,0,even,288101,NA,90429,141239,85316,288755,288183,288720,289431,290419,246261,NA,70019,70019,289667,288218,NA,2399,NA,NA,223074,2399,290869,NA,144589,288180,288755,Stroop CI,38,398741,41,yes,1366,GREEN
104,92.85714286,yes,92.85714286,21,9505.952381,9505.952381,#ffffff,no,C,v;b;n;m,legacy,I have read and understood the information shown above,legacy,legacy,#ffef36,0,con,uniform,1,1,1,NA,0,0,0,0,0,37,37,37,37,37,0,0,5,0,37,37,0,0,NA,0,37,0,37,NA,0,37,37,12/07/2016 14:49,The main experiment item,yes,m,CI_RSI2000.osexp,C:\Users\Marci\Documents\Lab,no,mono,no,18,no,black,no,Ok,NA,yes,Male,768,legacy,1,35,C:/Users/User/Dropbox/Sussex/Consciousness and control/Exp 1 - stroop suggestion and PCE/Methods/Palfi_script/laptop_size/subject-8.csv,legacy,Jazzy James,3.1.4,0,m,m,space,NA,509,509,218081,NA,2,legacy,1024,2,48000,-16,experiment,0,even,288101,NA,90429,141239,85316,291554,290982,291519,292066,293054,246261,NA,70019,70019,292302,291017,NA,2399,NA,NA,223074,2399,293504,NA,144589,290979,291554,Stroop CI,39,399250,42,yes,1366,YELLOW
30,93.02325581,yes,93.02325581,21,9297,9297,#ffffff,no,C,v;b;n;m,legacy,I have read and understood the information shown above,legacy,legacy,red,0,con,uniform,1,1,1,NA,0,0,0,0,0,38,38,38,38,38,0,0,5,0,38,38,0,0,NA,0,38,0,38,NA,0,38,38,12/07/2016 14:49,The main experiment item,yes,v,CI_RSI2000.osexp,C:\Users\Marci\Documents\Lab,no,mono,no,18,no,black,no,Ok,NA,yes,Male,768,legacy,2,35,C:/Users/User/Dropbox/Sussex/Consciousness and control/Exp 1 - stroop suggestion and PCE/Methods/Palfi_script/laptop_size/subject-8.csv,legacy,Jazzy James,3.1.4,0,v,v,space,NA,521,521,218081,NA,2,legacy,1024,2,48000,-16,experiment,0,even,288101,NA,90429,141239,85316,294188,293616,294153,294712,295700,246261,NA,70019,70019,294948,293651,NA,2399,NA,NA,223074,2399,296150,NA,144589,293613,294188,Stroop CI,40,399771,43,yes,1366,RED
81,93.18181818,yes,93.18181818,21,9097.704545,9097.704545,#ffffff,no,C,v;b;n;m,legacy,I have read and understood the information shown above,legacy,legacy,green,0,con,uniform,1,1,1,NA,0,0,0,0,0,39,39,39,39,39,0,0,5,0,39,39,0,0,NA,0,39,0,39,NA,0,39,39,12/07/2016 14:49,The main experiment item,yes,n,CI_RSI2000.osexp,C:\Users\Marci\Documents\Lab,no,mono,no,18,no,black,no,Ok,NA,yes,Male,768,legacy,3,35,C:/Users/User/Dropbox/Sussex/Consciousness and control/Exp 1 - stroop suggestion and PCE/Methods/Palfi_script/laptop_size/subject-8.csv,legacy,Jazzy James,3.1.4,0,n,n,space,NA,528,528,218081,NA,2,legacy,1024,2,48000,-16,experiment,0,even,288101,NA,90429,141239,85316,296832,296260,296797,297363,298352,246261,NA,70019,70019,297600,296295,NA,2399,NA,NA,223074,2399,298802,NA,144589,296258,296832,Stroop CI,41,400299,44,yes,1366,GREEN
18,93.33333333,yes,93.33333333,21,8903.044444,8903.044444,#ffffff,no,C,v;b;n;m,legacy,I have read and understood the information shown above,legacy,legacy,blue,0,neutral,uniform,1,1,1,NA,0,0,0,0,0,40,40,40,40,40,0,0,5,0,40,40,0,0,NA,0,40,0,40,NA,0,40,40,12/07/2016 14:49,The main experiment item,yes,b,CI_RSI2000.osexp,C:\Users\Marci\Documents\Lab,no,mono,no,18,no,black,no,Ok,NA,yes,Male,768,legacy,4,35,C:/Users/User/Dropbox/Sussex/Consciousness and control/Exp 1 - stroop suggestion and PCE/Methods/Palfi_script/laptop_size/subject-8.csv,legacy,Jazzy James,3.1.4,0,b,b,space,NA,338,338,218081,NA,2,legacy,1024,2,48000,-16,experiment,0,even,288101,NA,90429,141239,85316,299513,298940,299478,299854,300842,246261,NA,70019,70019,300090,298976,NA,2399,NA,NA,223074,2399,301292,NA,144589,298938,299513,Stroop CI,42,400637,45,yes,1366,FLOWER
92,91.30434783,yes,91.30434783,21,8719.717391,8719.717391,#ffffff,no,C,v;b;n;m,legacy,I have read and understood the information shown above,legacy,legacy,green,0,con,uniform,0,0,1,NA,0,0,0,0,0,41,41,41,41,41,0,0,5,0,41,41,0,0,NA,0,41,0,41,NA,0,41,41,12/07/2016 14:49,The main experiment item,yes,n,CI_RSI2000.osexp,C:\Users\Marci\Documents\Lab,no,mono,no,18,no,black,no,Ok,NA,yes,Male,768,legacy,5,35,C:/Users/User/Dropbox/Sussex/Consciousness and control/Exp 1 - stroop suggestion and PCE/Methods/Palfi_script/laptop_size/subject-8.csv,legacy,Jazzy James,3.1.4,0,m,m,space,NA,470,470,218081,NA,2,legacy,1024,2,48000,-16,experiment,0,even,288101,NA,90429,141239,85316,302001,301429,301966,302474,303462,246261,NA,70019,70019,300090,301464,NA,2399,NA,NA,302710,2399,303912,NA,144589,301426,302001,Stroop CI,42,401107,46,yes,1366,GREEN
64,89.36170213,yes,89.36170213,21,8547.212766,8547.212766,#ffffff,no,C,v;b;n;m,legacy,I have read and understood the information shown above,legacy,legacy,blue,0,con,uniform,0,0,1,NA,0,0,0,0,0,42,42,42,42,42,0,0,5,0,42,42,0,0,NA,0,42,0,42,NA,0,42,42,12/07/2016 14:49,The main experiment item,yes,b,CI_RSI2000.osexp,C:\Users\Marci\Documents\Lab,no,mono,no,18,no,black,no,Ok,NA,yes,Male,768,legacy,6,35,C:/Users/User/Dropbox/Sussex/Consciousness and control/Exp 1 - stroop suggestion and PCE/Methods/Palfi_script/laptop_size/subject-8.csv,legacy,Jazzy James,3.1.4,0,v,v,space,NA,612,612,218081,NA,2,legacy,1024,2,48000,-16,experiment,0,even,288101,NA,90429,141239,85316,304645,304072,304609,305260,306248,246261,NA,70019,70019,300090,304107,NA,2399,NA,NA,305496,2399,306698,NA,144589,304069,304645,Stroop CI,42,401719,47,yes,1366,BLUE
22,89.58333333,yes,89.58333333,21,8380.354167,8380.354167,#ffffff,no,C,v;b;n;m,legacy,I have read and understood the information shown above,legacy,legacy,#ffef36,0,neutral,uniform,1,1,1,NA,0,0,0,0,0,43,43,43,43,43,0,0,5,0,43,43,0,0,NA,0,43,0,43,NA,0,43,43,12/07/2016 14:49,The main experiment item,yes,m,CI_RSI2000.osexp,C:\Users\Marci\Documents\Lab,no,mono,no,18,no,black,no,Ok,NA,yes,Male,768,legacy,7,35,C:/Users/User/Dropbox/Sussex/Consciousness and control/Exp 1 - stroop suggestion and PCE/Methods/Palfi_script/laptop_size/subject-8.csv,legacy,Jazzy James,3.1.4,0,m,m,space,NA,538,538,218081,NA,2,legacy,1024,2,48000,-16,experiment,0,even,288101,NA,90429,141239,85316,307409,306837,307374,307950,308938,246261,NA,70019,70019,308186,306872,NA,2399,NA,NA,305496,2399,309388,NA,144589,306835,307409,Stroop CI,43,402257,48,yes,1366,LOT
102,89.79591837,yes,89.79591837,21,8219.918367,8219.918367,#ffffff,no,C,v;b;n;m,legacy,I have read and understood the information shown above,legacy,legacy,#ffef36,0,con,uniform,1,1,1,NA,0,0,0,0,0,44,44,44,44,44,0,0,5,0,44,44,0,0,NA,0,44,0,44,NA,0,44,44,12/07/2016 14:49,The main experiment item,yes,m,CI_RSI2000.osexp,C:\Users\Marci\Documents\Lab,no,mono,no,18,no,black,no,Ok,NA,yes,Male,768,legacy,8,35,C:/Users/User/Dropbox/Sussex/Consciousness and control/Exp 1 - stroop suggestion and PCE/Methods/Palfi_script/laptop_size/subject-8.csv,legacy,Jazzy James,3.1.4,0,m,m,space,NA,519,519,218081,NA,2,legacy,1024,2,48000,-16,experiment,0,even,288101,NA,90429,141239,85316,310100,309528,310065,310622,311610,246261,NA,70019,70019,310858,309563,NA,2399,NA,NA,305496,2399,312060,NA,144589,309525,310100,Stroop CI,44,402776,49,yes,1366,YELLOW
41,90,yes,90,21,8066.74,8066.74,#ffffff,no,C,v;b;n;m,legacy,I have read and understood the information shown above,legacy,legacy,red,0,con,uniform,1,1,1,NA,0,0,0,0,0,45,45,45,45,45,0,0,5,0,45,45,0,0,NA,0,45,0,45,NA,0,45,45,12/07/2016 14:49,The main experiment item,yes,v,CI_RSI2000.osexp,C:\Users\Marci\Documents\Lab,no,mono,no,18,no,black,no,Ok,NA,yes,Male,768,legacy,9,35,C:/Users/User/Dropbox/Sussex/Consciousness and control/Exp 1 - stroop suggestion and PCE/Methods/Palfi_script/laptop_size/subject-8.csv,legacy,Jazzy James,3.1.4,0,v,v,space,NA,561,561,218081,NA,2,legacy,1024,2,48000,-16,experiment,0,even,288101,NA,90429,141239,85316,312776,312204,312741,313341,314329,246261,NA,70019,70019,313577,312239,NA,2399,NA,NA,305496,2399,314779,NA,144589,312201,312776,Stroop CI,45,403337,50,yes,1366,RED
89,90.19607843,yes,90.19607843,21,7920.45098,7920.45098,#ffffff,no,C,v;b;n;m,legacy,I have read and understood the information shown above,legacy,legacy,green,0,con,uniform,1,1,1,NA,0,0,0,0,0,46,46,46,46,46,0,0,5,0,46,46,0,0,NA,0,46,0,46,NA,0,46,46,12/07/2016 14:49,The main experiment item,yes,n,CI_RSI2000.osexp,C:\Users\Marci\Documents\Lab,no,mono,no,18,no,black,no,Ok,NA,yes,Male,768,legacy,10,35,C:/Users/User/Dropbox/Sussex/Consciousness and control/Exp 1 - stroop suggestion and PCE/Methods/Palfi_script/laptop_size/subject-8.csv,legacy,Jazzy James,3.1.4,0,n,n,space,NA,606,606,218081,NA,2,legacy,1024,2,48000,-16,experiment,0,even,288101,NA,90429,141239,85316,315489,314917,315454,316099,317087,246261,NA,70019,70019,316335,314952,NA,2399,NA,NA,305496,2399,317537,NA,144589,314915,315489,Stroop CI,46,403943,51,yes,1366,GREEN
58,90.38461538,yes,90.38461538,21,7778.846154,7778.846154,#ffffff,no,C,v;b;n;m,legacy,I have read and understood the information shown above,legacy,legacy,blue,0,con,uniform,1,1,1,NA,0,0,0,0,0,47,47,47,47,47,0,0,5,0,47,47,0,0,NA,0,47,0,47,NA,0,47,47,12/07/2016 14:49,The main experiment item,yes,b,CI_RSI2000.osexp,C:\Users\Marci\Documents\Lab,no,mono,no,18,no,black,no,Ok,NA,yes,Male,768,legacy,11,35,C:/Users/User/Dropbox/Sussex/Consciousness and control/Exp 1 - stroop suggestion and PCE/Methods/Palfi_script/laptop_size/subject-8.csv,legacy,Jazzy James,3.1.4,0,b,b,space,NA,557,557,218081,NA,2,legacy,1024,2,48000,-16,experiment,0,even,288101,NA,90429,141239,85316,318246,317673,318211,318807,319795,246261,NA,70019,70019,319043,317709,NA,2399,NA,NA,305496,2399,320245,NA,144589,317671,318246,Stroop CI,47,404500,52,yes,1366,BLUE
80,90.56603774,yes,90.56603774,21,7644.54717,7644.54717,#ffffff,no,C,v;b;n;m,legacy,I have read and understood the information shown above,legacy,legacy,green,0,con,uniform,1,1,1,NA,0,0,0,0,0,48,48,48,48,48,0,0,5,0,48,48,0,0,NA,0,48,0,48,NA,0,48,48,12/07/2016 14:49,The main experiment item,yes,n,CI_RSI2000.osexp,C:\Users\Marci\Documents\Lab,no,mono,no,18,no,black,no,Ok,NA,yes,Male,768,legacy,12,35,C:/Users/User/Dropbox/Sussex/Consciousness and control/Exp 1 - stroop suggestion and PCE/Methods/Palfi_script/laptop_size/subject-8.csv,legacy,Jazzy James,3.1.4,0,n,n,space,NA,661,661,218081,NA,2,legacy,1024,2,48000,-16,experiment,0,even,288101,NA,90429,141239,85316,320956,320384,320921,321620,322608,246261,NA,70019,70019,321856,320419,NA,2399,NA,NA,305496,2399,323058,NA,144589,320381,320956,Stroop CI,48,405161,53,yes,1366,GREEN
94,90.74074074,yes,90.74074074,21,7511.851852,7511.851852,#ffffff,no,C,v;b;n;m,legacy,I have read and understood the information shown above,legacy,legacy,green,0,con,uniform,1,1,1,NA,0,0,0,0,0,49,49,49,49,49,0,0,5,0,49,49,0,0,NA,0,49,0,49,NA,0,49,49,12/07/2016 14:49,The main experiment item,yes,n,CI_RSI2000.osexp,C:\Users\Marci\Documents\Lab,no,mono,no,18,no,black,no,Ok,NA,yes,Male,768,legacy,13,35,C:/Users/User/Dropbox/Sussex/Consciousness and control/Exp 1 - stroop suggestion and PCE/Methods/Palfi_script/laptop_size/subject-8.csv,legacy,Jazzy James,3.1.4,0,n,n,space,NA,479,479,218081,NA,2,legacy,1024,2,48000,-16,experiment,0,even,288101,NA,90429,141239,85316,323745,323172,323710,324227,325215,246261,NA,70019,70019,324463,323208,NA,2399,NA,NA,305496,2399,325665,NA,144589,323170,323745,Stroop CI,49,405640,54,yes,1366,GREEN
51,89.09090909,yes,89.09090909,21,7387.072727,7387.072727,#ffffff,no,C,v;b;n;m,legacy,I have read and understood the information shown above,legacy,legacy,blue,0,con,uniform,0,0,1,NA,0,0,0,0,0,50,50,50,50,50,0,0,5,0,50,50,0,0,NA,0,50,0,50,NA,0,50,50,12/07/2016 14:49,The main experiment item,yes,b,CI_RSI2000.osexp,C:\Users\Marci\Documents\Lab,no,mono,no,18,no,black,no,Ok,NA,yes,Male,768,legacy,14,35,C:/Users/User/Dropbox/Sussex/Consciousness and control/Exp 1 - stroop suggestion and PCE/Methods/Palfi_script/laptop_size/subject-8.csv,legacy,Jazzy James,3.1.4,0,v,v,space,NA,649,649,218081,NA,2,legacy,1024,2,48000,-16,experiment,0,even,288101,NA,90429,141239,85316,326378,325806,326343,327031,328019,246261,NA,70019,70019,324463,325841,NA,2399,NA,NA,327267,2399,328469,NA,144589,325803,326378,Stroop CI,49,406289,55,yes,1366,BLUE
15,89.28571429,yes,89.28571429,21,7266.339286,7266.339286,#ffffff,no,C,v;b;n;m,legacy,I have read and understood the information shown above,legacy,legacy,red,0,neutral,uniform,1,1,1,NA,0,0,0,0,0,51,51,51,51,51,0,0,5,0,51,51,0,0,NA,0,51,0,51,NA,0,51,51,12/07/2016 14:49,The main experiment item,yes,v,CI_RSI2000.osexp,C:\Users\Marci\Documents\Lab,no,mono,no,18,no,black,no,Ok,NA,yes,Male,768,legacy,15,35,C:/Users/User/Dropbox/Sussex/Consciousness and control/Exp 1 - stroop suggestion and PCE/Methods/Palfi_script/laptop_size/subject-8.csv,legacy,Jazzy James,3.1.4,0,v,v,space,NA,626,626,218081,NA,2,legacy,1024,2,48000,-16,experiment,0,even,288101,NA,90429,141239,85316,329178,328606,329143,329807,330795,246261,NA,70019,70019,330043,328641,NA,2399,NA,NA,327267,2399,331245,NA,144589,328604,329178,Stroop CI,50,406915,56,yes,1366,FLOWER
79,89.47368421,yes,89.47368421,21,7149.210526,7149.210526,#ffffff,no,C,v;b;n;m,legacy,I have read and understood the information shown above,legacy,legacy,green,0,con,uniform,1,1,1,NA,0,0,0,0,0,52,52,52,52,52,0,0,5,0,52,52,0,0,NA,0,52,0,52,NA,0,52,52,12/07/2016 14:49,The main experiment item,yes,n,CI_RSI2000.osexp,C:\Users\Marci\Documents\Lab,no,mono,no,18,no,black,no,Ok,NA,yes,Male,768,legacy,16,35,C:/Users/User/Dropbox/Sussex/Consciousness and control/Exp 1 - stroop suggestion and PCE/Methods/Palfi_script/laptop_size/subject-8.csv,legacy,Jazzy James,3.1.4,0,n,n,space,NA,590,590,218081,NA,2,legacy,1024,2,48000,-16,experiment,0,even,288101,NA,90429,141239,85316,331955,331382,331920,332548,333536,246261,NA,70019,70019,332784,331418,NA,2399,NA,NA,327267,2399,333986,NA,144589,331380,331955,Stroop CI,51,407505,57,yes,1366,GREEN
10,89.65517241,yes,89.65517241,21,7032.637931,7032.637931,#ffffff,no,C,v;b;n;m,legacy,I have read and understood the information shown above,legacy,legacy,blue,0,inc,uniform,1,1,1,NA,0,0,0,0,0,53,53,53,53,53,0,0,5,0,53,53,0,0,NA,0,53,0,53,NA,0,53,53,12/07/2016 14:49,The main experiment item,yes,b,CI_RSI2000.osexp,C:\Users\Marci\Documents\Lab,no,mono,no,18,no,black,no,Ok,NA,yes,Male,768,legacy,17,35,C:/Users/User/Dropbox/Sussex/Consciousness and control/Exp 1 - stroop suggestion and PCE/Methods/Palfi_script/laptop_size/subject-8.csv,legacy,Jazzy James,3.1.4,0,b,b,space,NA,388,388,218081,NA,2,legacy,1024,2,48000,-16,experiment,0,even,288101,NA,90429,141239,85316,334699,334127,334664,335090,336078,246261,NA,70019,70019,335326,334162,NA,2399,NA,NA,327267,2399,336528,NA,144589,334124,334699,Stroop CI,52,407893,58,yes,1366,GREEN
8,89.83050847,yes,89.83050847,21,6924.915254,6924.915254,#ffffff,no,C,v;b;n;m,legacy,I have read and understood the information shown above,legacy,legacy,blue,0,inc,uniform,1,1,1,NA,0,0,0,0,0,54,54,54,54,54,0,0,5,0,54,54,0,0,NA,0,54,0,54,NA,0,54,54,12/07/2016 14:49,The main experiment item,yes,b,CI_RSI2000.osexp,C:\Users\Marci\Documents\Lab,no,mono,no,18,no,black,no,Ok,NA,yes,Male,768,legacy,18,35,C:/Users/User/Dropbox/Sussex/Consciousness and control/Exp 1 - stroop suggestion and PCE/Methods/Palfi_script/laptop_size/subject-8.csv,legacy,Jazzy James,3.1.4,0,b,b,space,NA,677,677,218081,NA,2,legacy,1024,2,48000,-16,experiment,0,even,288101,NA,90429,141239,85316,337232,336660,337197,337912,338900,246261,NA,70019,70019,338148,336695,NA,2399,NA,NA,327267,2399,339350,NA,144589,336657,337232,Stroop CI,53,408570,59,yes,1366,RED
73,90,yes,90,21,6819.383333,6819.383333,#ffffff,no,C,v;b;n;m,legacy,I have read and understood the information shown above,legacy,legacy,green,0,con,uniform,1,1,1,NA,0,0,0,0,0,55,55,55,55,55,0,0,5,0,55,55,0,0,NA,0,55,0,55,NA,0,55,55,12/07/2016 14:49,The main experiment item,yes,n,CI_RSI2000.osexp,C:\Users\Marci\Documents\Lab,no,mono,no,18,no,black,no,Ok,NA,yes,Male,768,legacy,19,35,C:/Users/User/Dropbox/Sussex/Consciousness and control/Exp 1 - stroop suggestion and PCE/Methods/Palfi_script/laptop_size/subject-8.csv,legacy,Jazzy James,3.1.4,0,n,n,space,NA,593,593,218081,NA,2,legacy,1024,2,48000,-16,experiment,0,even,288101,NA,90429,141239,85316,340067,339495,340032,340663,341652,246261,NA,70019,70019,340900,339530,NA,2399,NA,NA,327267,2399,342102,NA,144589,339493,340067,Stroop CI,54,409163,60,yes,1366,GREEN
119,90.16393443,yes,90.16393443,21,6718.442623,6718.442623,#ffffff,no,C,v;b;n;m,legacy,I have read and understood the information shown above,legacy,legacy,#ffef36,0,con,uniform,1,1,1,NA,0,0,0,0,0,56,56,56,56,56,0,0,5,0,56,56,0,0,NA,0,56,0,56,NA,0,56,56,12/07/2016 14:49,The main experiment item,yes,m,CI_RSI2000.osexp,C:\Users\Marci\Documents\Lab,no,mono,no,18,no,black,no,Ok,NA,yes,Male,768,legacy,20,35,C:/Users/User/Dropbox/Sussex/Consciousness and control/Exp 1 - stroop suggestion and PCE/Methods/Palfi_script/laptop_size/subject-8.csv,legacy,Jazzy James,3.1.4,0,m,m,space,NA,662,662,218081,NA,2,legacy,1024,2,48000,-16,experiment,0,even,288101,NA,90429,141239,85316,342812,342240,342777,343478,344466,246261,NA,70019,70019,343714,342275,NA,2399,NA,NA,327267,2399,344916,NA,144589,342238,342812,Stroop CI,55,409825,61,yes,1366,YELLOW
98,90.32258065,yes,90.32258065,21,6619.467742,6619.467742,#ffffff,no,C,v;b;n;m,legacy,I have read and understood the information shown above,legacy,legacy,#ffef36,0,con,uniform,1,1,1,NA,0,0,0,0,0,57,57,57,57,57,0,0,5,0,57,57,0,0,NA,0,57,0,57,NA,0,57,57,12/07/2016 14:49,The main experiment item,yes,m,CI_RSI2000.osexp,C:\Users\Marci\Documents\Lab,no,mono,no,18,no,black,no,Ok,NA,yes,Male,768,legacy,21,35,C:/Users/User/Dropbox/Sussex/Consciousness and control/Exp 1 - stroop suggestion and PCE/Methods/Palfi_script/laptop_size/subject-8.csv,legacy,Jazzy James,3.1.4,0,m,m,space,NA,582,582,218081,NA,2,legacy,1024,2,48000,-16,experiment,0,even,288101,NA,90429,141239,85316,345645,345073,345610,346230,347218,246261,NA,70019,70019,346466,345108,NA,2399,NA,NA,327267,2399,347668,NA,144589,345071,345645,Stroop CI,56,410407,62,yes,1366,YELLOW
59,90.47619048,yes,90.47619048,21,6522.746032,6522.746032,#ffffff,no,C,v;b;n;m,legacy,I have read and understood the information shown above,legacy,legacy,blue,0,con,uniform,1,1,1,NA,0,0,0,0,0,58,58,58,58,58,0,0,5,0,58,58,0,0,NA,0,58,0,58,NA,0,58,58,12/07/2016 14:49,The main experiment item,yes,b,CI_RSI2000.osexp,C:\Users\Marci\Documents\Lab,no,mono,no,18,no,black,no,Ok,NA,yes,Male,768,legacy,22,35,C:/Users/User/Dropbox/Sussex/Consciousness and control/Exp 1 - stroop suggestion and PCE/Methods/Palfi_script/laptop_size/subject-8.csv,legacy,Jazzy James,3.1.4,0,b,b,space,NA,526,526,218081,NA,2,legacy,1024,2,48000,-16,experiment,0,even,288101,NA,90429,141239,85316,348378,347805,348343,348907,349896,246261,NA,70019,70019,349144,347841,NA,2399,NA,NA,327267,2399,350346,NA,144589,347803,348378,Stroop CI,57,410933,63,yes,1366,BLUE
85,90.625,yes,90.625,21,6428.71875,6428.71875,#ffffff,no,C,v;b;n;m,legacy,I have read and understood the information shown above,legacy,legacy,green,0,con,uniform,1,1,1,NA,0,0,0,0,0,59,59,59,59,59,0,0,5,0,59,59,0,0,NA,0,59,0,59,NA,0,59,59,12/07/2016 14:49,The main experiment item,yes,n,CI_RSI2000.osexp,C:\Users\Marci\Documents\Lab,no,mono,no,18,no,black,no,Ok,NA,yes,Male,768,legacy,23,35,C:/Users/User/Dropbox/Sussex/Consciousness and control/Exp 1 - stroop suggestion and PCE/Methods/Palfi_script/laptop_size/subject-8.csv,legacy,Jazzy James,3.1.4,0,n,n,space,NA,505,505,218081,NA,2,legacy,1024,2,48000,-16,experiment,0,even,288101,NA,90429,141239,85316,351059,350487,351024,351567,352555,246261,NA,70019,70019,351803,350522,NA,2399,NA,NA,327267,2399,353005,NA,144589,350484,351059,Stroop CI,58,411438,64,yes,1366,GREEN
21,90.76923077,yes,90.76923077,21,6338.523077,6338.523077,#ffffff,no,C,v;b;n;m,legacy,I have read and understood the information shown above,legacy,legacy,green,0,neutral,uniform,1,1,1,NA,0,0,0,0,0,60,60,60,60,60,0,0,5,0,60,60,0,0,NA,0,60,0,60,NA,0,60,60,12/07/2016 14:49,The main experiment item,yes,n,CI_RSI2000.osexp,C:\Users\Marci\Documents\Lab,no,mono,no,18,no,black,no,Ok,NA,yes,Male,768,legacy,24,35,C:/Users/User/Dropbox/Sussex/Consciousness and control/Exp 1 - stroop suggestion and PCE/Methods/Palfi_script/laptop_size/subject-8.csv,legacy,Jazzy James,3.1.4,0,n,n,space,NA,566,566,218081,NA,2,legacy,1024,2,48000,-16,experiment,0,even,288101,NA,90429,141239,85316,353744,353172,353709,354313,355301,246261,NA,70019,70019,354549,353207,NA,2399,NA,NA,327267,2399,355751,NA,144589,353170,353744,Stroop CI,59,412004,65,yes,1366,FLOWER
77,90.90909091,yes,90.90909091,21,6250.439394,6250.439394,#ffffff,no,C,v;b;n;m,legacy,I have read and understood the information shown above,legacy,legacy,green,0,con,uniform,1,1,1,NA,0,0,0,0,0,61,61,61,61,61,0,0,5,0,61,61,0,0,NA,0,61,0,61,NA,0,61,61,12/07/2016 14:49,The main experiment item,yes,n,CI_RSI2000.osexp,C:\Users\Marci\Documents\Lab,no,mono,no,18,no,black,no,Ok,NA,yes,Male,768,legacy,25,35,C:/Users/User/Dropbox/Sussex/Consciousness and control/Exp 1 - stroop suggestion and PCE/Methods/Palfi_script/laptop_size/subject-8.csv,legacy,Jazzy James,3.1.4,0,n,n,space,NA,525,525,218081,NA,2,legacy,1024,2,48000,-16,experiment,0,even,288101,NA,90429,141239,85316,356467,355895,356432,356995,357983,246261,NA,70019,70019,357231,355930,NA,2399,NA,NA,327267,2399,358433,NA,144589,355892,356467,Stroop CI,60,412529,66,yes,1366,GREEN
9,91.04477612,yes,91.04477612,21,6167.119403,6167.119403,#ffffff,no,C,v;b;n;m,legacy,I have read and understood the information shown above,legacy,legacy,blue,0,inc,uniform,1,1,1,NA,0,0,0,0,0,62,62,62,62,62,0,0,5,0,62,62,0,0,NA,0,62,0,62,NA,0,62,62,12/07/2016 14:49,The main experiment item,yes,b,CI_RSI2000.osexp,C:\Users\Marci\Documents\Lab,no,mono,no,18,no,black,no,Ok,NA,yes,Male,768,legacy,26,35,C:/Users/User/Dropbox/Sussex/Consciousness and control/Exp 1 - stroop suggestion and PCE/Methods/Palfi_script/laptop_size/subject-8.csv,legacy,Jazzy James,3.1.4,0,b,b,space,NA,668,668,218081,NA,2,legacy,1024,2,48000,-16,experiment,0,even,288101,NA,90429,141239,85316,359145,358573,359110,359816,360804,246261,NA,70019,70019,360052,358608,NA,2399,NA,NA,327267,2399,361254,NA,144589,358571,359145,Stroop CI,61,413197,67,yes,1366,GREEN
70,91.17647059,yes,91.17647059,21,6083.705882,6083.705882,#ffffff,no,C,v;b;n;m,legacy,I have read and understood the information shown above,legacy,legacy,blue,0,con,uniform,1,1,1,NA,0,0,0,0,0,63,63,63,63,63,0,0,5,0,63,63,0,0,NA,0,63,0,63,NA,0,63,63,12/07/2016 14:49,The main experiment item,yes,b,CI_RSI2000.osexp,C:\Users\Marci\Documents\Lab,no,mono,no,18,no,black,no,Ok,NA,yes,Male,768,legacy,27,35,C:/Users/User/Dropbox/Sussex/Consciousness and control/Exp 1 - stroop suggestion and PCE/Methods/Palfi_script/laptop_size/subject-8.csv,legacy,Jazzy James,3.1.4,0,b,b,space,NA,495,495,218081,NA,2,legacy,1024,2,48000,-16,experiment,0,even,288101,NA,90429,141239,85316,361968,361395,361933,362466,363454,246261,NA,70019,70019,362702,361431,NA,2399,NA,NA,327267,2399,363905,NA,144589,361393,361968,Stroop CI,62,413692,68,yes,1366,BLUE
87,91.30434783,yes,91.30434783,21,6005.449275,6005.449275,#ffffff,no,C,v;b;n;m,legacy,I have read and understood the information shown above,legacy,legacy,green,0,con,uniform,1,1,1,NA,0,0,0,0,0,64,64,64,64,64,0,0,5,0,64,64,0,0,NA,0,64,0,64,NA,0,64,64,12/07/2016 14:49,The main experiment item,yes,n,CI_RSI2000.osexp,C:\Users\Marci\Documents\Lab,no,mono,no,18,no,black,no,Ok,NA,yes,Male,768,legacy,28,35,C:/Users/User/Dropbox/Sussex/Consciousness and control/Exp 1 - stroop suggestion and PCE/Methods/Palfi_script/laptop_size/subject-8.csv,legacy,Jazzy James,3.1.4,0,n,n,space,NA,684,684,218081,NA,2,legacy,1024,2,48000,-16,experiment,0,even,288101,NA,90429,141239,85316,364635,364063,364600,365323,366311,246261,NA,70019,70019,365559,364098,NA,2399,NA,NA,327267,2399,366761,NA,144589,364061,364635,Stroop CI,63,414376,69,yes,1366,GREEN
53,91.42857143,yes,91.42857143,21,5928.142857,5928.142857,#ffffff,no,C,v;b;n;m,legacy,I have read and understood the information shown above,legacy,legacy,blue,0,con,uniform,1,1,1,NA,0,0,0,0,0,65,65,65,65,65,0,0,5,0,65,65,0,0,NA,0,65,0,65,NA,0,65,65,12/07/2016 14:49,The main experiment item,yes,b,CI_RSI2000.osexp,C:\Users\Marci\Documents\Lab,no,mono,no,18,no,black,no,Ok,NA,yes,Male,768,legacy,29,35,C:/Users/User/Dropbox/Sussex/Consciousness and control/Exp 1 - stroop suggestion and PCE/Methods/Palfi_script/laptop_size/subject-8.csv,legacy,Jazzy James,3.1.4,0,b,b,space,NA,594,594,218081,NA,2,legacy,1024,2,48000,-16,experiment,0,even,288101,NA,90429,141239,85316,367468,366896,367433,368065,369053,246261,NA,70019,70019,368301,366931,NA,2399,NA,NA,327267,2399,369503,NA,144589,366893,367468,Stroop CI,64,414970,70,yes,1366,BLUE
34,91.54929577,yes,91.54929577,21,5853.816901,5853.816901,#ffffff,no,C,v;b;n;m,legacy,I have read and understood the information shown above,legacy,legacy,red,0,con,uniform,1,1,1,NA,0,0,0,0,0,66,66,66,66,66,0,0,5,0,66,66,0,0,NA,0,66,0,66,NA,0,66,66,12/07/2016 14:49,The main experiment item,yes,v,CI_RSI2000.osexp,C:\Users\Marci\Documents\Lab,no,mono,no,18,no,black,no,Ok,NA,yes,Male,768,legacy,30,35,C:/Users/User/Dropbox/Sussex/Consciousness and control/Exp 1 - stroop suggestion and PCE/Methods/Palfi_script/laptop_size/subject-8.csv,legacy,Jazzy James,3.1.4,0,v,v,space,NA,651,651,218081,NA,2,legacy,1024,2,48000,-16,experiment,0,even,288101,NA,90429,141239,85316,370190,369616,370155,370845,371833,246261,NA,70019,70019,371081,369652,NA,2399,NA,NA,327267,2399,372283,NA,144589,369614,370190,Stroop CI,65,415621,71,yes,1366,RED
113,91.66666667,yes,91.66666667,21,5780.638889,5780.638889,#ffffff,no,C,v;b;n;m,legacy,I have read and understood the information shown above,legacy,legacy,#ffef36,0,con,uniform,1,1,1,NA,0,0,0,0,0,67,67,67,67,67,0,0,5,0,67,67,0,0,NA,0,67,0,67,NA,0,67,67,12/07/2016 14:49,The main experiment item,yes,m,CI_RSI2000.osexp,C:\Users\Marci\Documents\Lab,no,mono,no,18,no,black,no,Ok,NA,yes,Male,768,legacy,31,35,C:/Users/User/Dropbox/Sussex/Consciousness and control/Exp 1 - stroop suggestion and PCE/Methods/Palfi_script/laptop_size/subject-8.csv,legacy,Jazzy James,3.1.4,0,m,m,space,NA,585,585,218081,NA,2,legacy,1024,2,48000,-16,experiment,0,even,288101,NA,90429,141239,85316,372988,372416,372953,373576,374564,246261,NA,70019,70019,373812,372451,NA,2399,NA,NA,327267,2399,375014,NA,144589,372413,372988,Stroop CI,66,416206,72,yes,1366,YELLOW
31,91.78082192,yes,91.78082192,21,5709.506849,5709.506849,#ffffff,no,C,v;b;n;m,legacy,I have read and understood the information shown above,legacy,legacy,red,0,con,uniform,1,1,1,NA,0,0,0,0,0,68,68,68,68,68,0,0,5,0,68,68,0,0,NA,0,68,0,68,NA,0,68,68,12/07/2016 14:49,The main experiment item,yes,v,CI_RSI2000.osexp,C:\Users\Marci\Documents\Lab,no,mono,no,18,no,black,no,Ok,NA,yes,Male,768,legacy,32,35,C:/Users/User/Dropbox/Sussex/Consciousness and control/Exp 1 - stroop suggestion and PCE/Methods/Palfi_script/laptop_size/subject-8.csv,legacy,Jazzy James,3.1.4,0,v,v,space,NA,588,588,218081,NA,2,legacy,1024,2,48000,-16,experiment,0,even,288101,NA,90429,141239,85316,375734,375162,375699,376326,377314,246261,NA,70019,70019,376562,375197,NA,2399,NA,NA,327267,2399,377764,NA,144589,375159,375734,Stroop CI,67,416794,73,yes,1366,RED
50,91.89189189,yes,91.89189189,21,5641.581081,5641.581081,#ffffff,no,C,v;b;n;m,legacy,I have read and understood the information shown above,legacy,legacy,blue,0,con,uniform,1,1,1,NA,0,0,0,0,0,69,69,69,69,69,0,0,5,0,69,69,0,0,NA,0,69,0,69,NA,0,69,69,12/07/2016 14:49,The main experiment item,yes,b,CI_RSI2000.osexp,C:\Users\Marci\Documents\Lab,no,mono,no,18,no,black,no,Ok,NA,yes,Male,768,legacy,33,35,C:/Users/User/Dropbox/Sussex/Consciousness and control/Exp 1 - stroop suggestion and PCE/Methods/Palfi_script/laptop_size/subject-8.csv,legacy,Jazzy James,3.1.4,0,b,b,space,NA,683,683,218081,NA,2,legacy,1024,2,48000,-16,experiment,0,even,288101,NA,90429,141239,85316,378479,377907,378444,379165,380153,246261,NA,70019,70019,379401,377942,NA,2399,NA,NA,327267,2399,380603,NA,144589,377904,378479,Stroop CI,68,417477,74,yes,1366,BLUE
88,92,yes,92,21,5574,5574,#ffffff,no,C,v;b;n;m,legacy,I have read and understood the information shown above,legacy,legacy,green,0,con,uniform,1,1,1,NA,0,0,0,0,0,70,70,70,70,70,0,0,5,0,70,70,0,0,NA,0,70,0,70,NA,0,70,70,12/07/2016 14:49,The main experiment item,yes,n,CI_RSI2000.osexp,C:\Users\Marci\Documents\Lab,no,mono,no,18,no,black,no,Ok,NA,yes,Male,768,legacy,34,35,C:/Users/User/Dropbox/Sussex/Consciousness and control/Exp 1 - stroop suggestion and PCE/Methods/Palfi_script/laptop_size/subject-8.csv,legacy,Jazzy James,3.1.4,0,n,n,space,NA,573,573,218081,NA,2,legacy,1024,2,48000,-16,experiment,0,even,288101,NA,90429,141239,85316,381313,380741,381278,381889,382877,246261,NA,70019,70019,382125,380776,NA,2399,NA,NA,327267,2399,383327,NA,144589,380738,381313,Stroop CI,69,418050,75,yes,1366,GREEN
75,92.10526316,yes,92.10526316,21,5507.105263,5507.105263,#ffffff,no,C,v;b;n;m,legacy,I have read and understood the information shown above,legacy,legacy,green,0,con,uniform,1,1,1,NA,0,0,0,0,0,71,71,71,71,71,0,0,5,0,71,71,0,0,NA,0,71,0,71,NA,0,71,71,12/07/2016 14:49,The main experiment item,yes,n,CI_RSI2000.osexp,C:\Users\Marci\Documents\Lab,no,mono,no,18,no,black,no,Ok,NA,yes,Male,768,legacy,35,35,C:/Users/User/Dropbox/Sussex/Consciousness and control/Exp 1 - stroop suggestion and PCE/Methods/Palfi_script/laptop_size/subject-8.csv,legacy,Jazzy James,3.1.4,0,n,n,space,NA,490,490,218081,NA,2,legacy,1024,2,48000,-16,experiment,0,even,288101,NA,90429,141239,85316,384053,383480,384018,384546,385534,246261,NA,70019,70019,384782,383516,NA,2399,NA,NA,327267,2399,385984,NA,144589,383477,384053,Stroop CI,70,418540,76,yes,1366,GREEN
108,92.20779221,yes,92.20779221,21,5442.571429,5442.571429,#ffffff,no,C,v;b;n;m,legacy,I have read and understood the information shown above,legacy,legacy,#ffef36,0,con,uniform,1,1,1,NA,0,0,0,0,0,72,72,72,72,72,0,0,5,0,72,72,0,0,NA,0,72,0,72,NA,0,72,72,12/07/2016 14:49,The main experiment item,yes,m,CI_RSI2000.osexp,C:\Users\Marci\Documents\Lab,no,mono,no,18,no,black,no,Ok,NA,yes,Male,768,legacy,36,35,C:/Users/User/Dropbox/Sussex/Consciousness and control/Exp 1 - stroop suggestion and PCE/Methods/Palfi_script/laptop_size/subject-8.csv,legacy,Jazzy James,3.1.4,0,m,m,space,NA,538,538,218081,NA,2,legacy,1024,2,48000,-16,experiment,0,even,288101,NA,90429,141239,85316,386689,386117,386654,387230,388218,246261,NA,70019,70019,387466,386152,NA,2399,NA,NA,327267,2399,388668,NA,144589,386114,386689,Stroop CI,71,419078,77,yes,1366,YELLOW
120,92.30769231,yes,92.30769231,21,5379.666667,5379.666667,#ffffff,no,C,v;b;n;m,legacy,I have read and understood the information shown above,legacy,legacy,#ffef36,0,con,uniform,1,1,1,NA,0,0,0,0,0,73,73,73,73,73,0,0,5,0,73,73,0,0,NA,0,73,0,73,NA,0,73,73,12/07/2016 14:49,The main experiment item,yes,m,CI_RSI2000.osexp,C:\Users\Marci\Documents\Lab,no,mono,no,18,no,black,no,Ok,NA,yes,Male,768,legacy,37,35,C:/Users/User/Dropbox/Sussex/Consciousness and control/Exp 1 - stroop suggestion and PCE/Methods/Palfi_script/laptop_size/subject-8.csv,legacy,Jazzy James,3.1.4,0,m,m,space,NA,536,536,218081,NA,2,legacy,1024,2,48000,-16,experiment,0,even,288101,NA,90429,141239,85316,389379,388806,389344,389919,390907,246261,NA,70019,70019,390155,388842,NA,2399,NA,NA,327267,2399,391357,NA,144589,388804,389379,Stroop CI,72,419614,78,yes,1366,YELLOW
44,92.40506329,yes,92.40506329,21,5317.101266,5317.101266,#ffffff,no,C,v;b;n;m,legacy,I have read and understood the information shown above,legacy,legacy,red,0,con,uniform,1,1,1,NA,0,0,0,0,0,74,74,74,74,74,0,0,5,0,74,74,0,0,NA,0,74,0,74,NA,0,74,74,12/07/2016 14:49,The main experiment item,yes,v,CI_RSI2000.osexp,C:\Users\Marci\Documents\Lab,no,mono,no,18,no,black,no,Ok,NA,yes,Male,768,legacy,38,35,C:/Users/User/Dropbox/Sussex/Consciousness and control/Exp 1 - stroop suggestion and PCE/Methods/Palfi_script/laptop_size/subject-8.csv,legacy,Jazzy James,3.1.4,0,v,v,space,NA,437,437,218081,NA,2,legacy,1024,2,48000,-16,experiment,0,even,288101,NA,90429,141239,85316,392075,391502,392040,392515,393503,246261,NA,70019,70019,392751,391538,NA,2399,NA,NA,327267,2399,393953,NA,144589,391499,392075,Stroop CI,73,420051,79,yes,1366,RED
24,92.5,yes,92.5,21,5259.025,5259.025,#ffffff,no,C,v;b;n;m,legacy,I have read and understood the information shown above,legacy,legacy,#ffef36,0,neutral,uniform,1,1,1,NA,0,0,0,0,0,75,75,75,75,75,0,0,5,0,75,75,0,0,NA,0,75,0,75,NA,0,75,75,12/07/2016 14:49,The main experiment item,yes,m,CI_RSI2000.osexp,C:\Users\Marci\Documents\Lab,no,mono,no,18,no,black,no,Ok,NA,yes,Male,768,legacy,39,35,C:/Users/User/Dropbox/Sussex/Consciousness and control/Exp 1 - stroop suggestion and PCE/Methods/Palfi_script/laptop_size/subject-8.csv,legacy,Jazzy James,3.1.4,0,m,m,space,NA,671,671,218081,NA,2,legacy,1024,2,48000,-16,experiment,0,even,288101,NA,90429,141239,85316,394667,394094,394631,395341,396329,246261,NA,70019,70019,395577,394129,NA,2399,NA,NA,327267,2399,396779,NA,144589,394091,394667,Stroop CI,74,420722,80,yes,1366,KNIFE
95,92.59259259,yes,92.59259259,21,5200.975309,5200.975309,#ffffff,no,C,v;b;n;m,legacy,I have read and understood the information shown above,legacy,legacy,green,0,con,uniform,1,1,1,NA,0,0,0,0,0,76,76,76,76,76,0,0,5,0,76,76,0,0,NA,0,76,0,76,NA,0,76,76,12/07/2016 14:49,The main experiment item,yes,n,CI_RSI2000.osexp,C:\Users\Marci\Documents\Lab,no,mono,no,18,no,black,no,Ok,NA,yes,Male,768,legacy,40,35,C:/Users/User/Dropbox/Sussex/Consciousness and control/Exp 1 - stroop suggestion and PCE/Methods/Palfi_script/laptop_size/subject-8.csv,legacy,Jazzy James,3.1.4,0,n,n,space,NA,557,557,218081,NA,2,legacy,1024,2,48000,-16,experiment,0,even,288101,NA,90429,141239,85316,397489,396917,397454,398049,399037,246261,NA,70019,70019,398285,396952,NA,2399,NA,NA,327267,2399,399487,NA,144589,396914,397489,Stroop CI,75,421279,81,yes,1366,GREEN
110,92.68292683,yes,92.68292683,21,5143.670732,5143.670732,#ffffff,no,C,v;b;n;m,legacy,I have read and understood the information shown above,legacy,legacy,#ffef36,0,con,uniform,1,1,1,NA,0,0,0,0,0,77,77,77,77,77,0,0,5,0,77,77,0,0,NA,0,77,0,77,NA,0,77,77,12/07/2016 14:49,The main experiment item,yes,m,CI_RSI2000.osexp,C:\Users\Marci\Documents\Lab,no,mono,no,18,no,black,no,Ok,NA,yes,Male,768,legacy,41,35,C:/Users/User/Dropbox/Sussex/Consciousness and control/Exp 1 - stroop suggestion and PCE/Methods/Palfi_script/laptop_size/subject-8.csv,legacy,Jazzy James,3.1.4,0,m,m,space,NA,502,502,218081,NA,2,legacy,1024,2,48000,-16,experiment,0,even,288101,NA,90429,141239,85316,400168,399596,400133,400674,401662,246261,NA,70019,70019,400910,399631,NA,2399,NA,NA,327267,2399,402112,NA,144589,399594,400168,Stroop CI,76,421781,82,yes,1366,YELLOW
49,92.77108434,yes,92.77108434,21,5088.180723,5088.180723,#ffffff,no,C,v;b;n;m,legacy,I have read and understood the information shown above,legacy,legacy,blue,0,con,uniform,1,1,1,NA,0,0,0,0,0,78,78,78,78,78,0,0,5,0,78,78,0,0,NA,0,78,0,78,NA,0,78,78,12/07/2016 14:49,The main experiment item,yes,b,CI_RSI2000.osexp,C:\Users\Marci\Documents\Lab,no,mono,no,18,no,black,no,Ok,NA,yes,Male,768,legacy,42,35,C:/Users/User/Dropbox/Sussex/Consciousness and control/Exp 1 - stroop suggestion and PCE/Methods/Palfi_script/laptop_size/subject-8.csv,legacy,Jazzy James,3.1.4,0,b,b,space,NA,538,538,218081,NA,2,legacy,1024,2,48000,-16,experiment,0,even,288101,NA,90429,141239,85316,402822,402249,402787,403364,404352,246261,NA,70019,70019,403600,402285,NA,2399,NA,NA,327267,2399,404802,NA,144589,402247,402822,Stroop CI,77,422319,83,yes,1366,BLUE
115,92.85714286,yes,92.85714286,21,5034.678571,5034.678571,#ffffff,no,C,v;b;n;m,legacy,I have read and understood the information shown above,legacy,legacy,#ffef36,0,con,uniform,1,1,1,NA,0,0,0,0,0,79,79,79,79,79,0,0,5,0,79,79,0,0,NA,0,79,0,79,NA,0,79,79,12/07/2016 14:49,The main experiment item,yes,m,CI_RSI2000.osexp,C:\Users\Marci\Documents\Lab,no,mono,no,18,no,black,no,Ok,NA,yes,Male,768,legacy,43,35,C:/Users/User/Dropbox/Sussex/Consciousness and control/Exp 1 - stroop suggestion and PCE/Methods/Palfi_script/laptop_size/subject-8.csv,legacy,Jazzy James,3.1.4,0,m,m,space,NA,594,594,218081,NA,2,legacy,1024,2,48000,-16,experiment,0,even,288101,NA,90429,141239,85316,405535,404963,405500,406133,407121,246261,NA,70019,70019,406369,404998,NA,2399,NA,NA,327267,2399,407571,NA,144589,404960,405535,Stroop CI,78,422913,84,yes,1366,YELLOW
68,92.94117647,yes,92.94117647,21,4984.870588,4984.870588,#ffffff,no,C,v;b;n;m,legacy,I have read and understood the information shown above,legacy,legacy,blue,0,con,uniform,1,1,1,NA,0,0,0,0,0,80,80,80,80,80,0,0,5,0,80,80,0,0,NA,0,80,0,80,NA,0,80,80,12/07/2016 14:49,The main experiment item,yes,b,CI_RSI2000.osexp,C:\Users\Marci\Documents\Lab,no,mono,no,18,no,black,no,Ok,NA,yes,Male,768,legacy,44,35,C:/Users/User/Dropbox/Sussex/Consciousness and control/Exp 1 - stroop suggestion and PCE/Methods/Palfi_script/laptop_size/subject-8.csv,legacy,Jazzy James,3.1.4,0,b,b,space,NA,801,801,218081,NA,2,legacy,1024,2,48000,-16,experiment,0,even,288101,NA,90429,141239,85316,408257,407685,408222,409062,410050,246261,NA,70019,70019,409298,407720,NA,2399,NA,NA,327267,2399,410500,NA,144589,407683,408257,Stroop CI,79,423714,85,yes,1366,BLUE
76,93.02325581,yes,93.02325581,21,4933.883721,4933.883721,#ffffff,no,C,v;b;n;m,legacy,I have read and understood the information shown above,legacy,legacy,green,0,con,uniform,1,1,1,NA,0,0,0,0,0,81,81,81,81,81,0,0,5,0,81,81,0,0,NA,0,81,0,81,NA,0,81,81,12/07/2016 14:49,The main experiment item,yes,n,CI_RSI2000.osexp,C:\Users\Marci\Documents\Lab,no,mono,no,18,no,black,no,Ok,NA,yes,Male,768,legacy,45,35,C:/Users/User/Dropbox/Sussex/Consciousness and control/Exp 1 - stroop suggestion and PCE/Methods/Palfi_script/laptop_size/subject-8.csv,legacy,Jazzy James,3.1.4,0,n,n,space,NA,600,600,218081,NA,2,legacy,1024,2,48000,-16,experiment,0,even,288101,NA,90429,141239,85316,411234,410662,411199,411838,412826,246261,NA,70019,70019,412074,410697,NA,2399,NA,NA,327267,2399,413276,NA,144589,410660,411234,Stroop CI,80,424314,86,yes,1366,GREEN
65,93.10344828,yes,93.10344828,21,4883.931034,4883.931034,#ffffff,no,C,v;b;n;m,legacy,I have read and understood the information shown above,legacy,legacy,blue,0,con,uniform,1,1,1,NA,0,0,0,0,0,82,82,82,82,82,0,0,5,0,82,82,0,0,NA,0,82,0,82,NA,0,82,82,12/07/2016 14:49,The main experiment item,yes,b,CI_RSI2000.osexp,C:\Users\Marci\Documents\Lab,no,mono,no,18,no,black,no,Ok,NA,yes,Male,768,legacy,46,35,C:/Users/User/Dropbox/Sussex/Consciousness and control/Exp 1 - stroop suggestion and PCE/Methods/Palfi_script/laptop_size/subject-8.csv,legacy,Jazzy James,3.1.4,0,b,b,space,NA,588,588,218081,NA,2,legacy,1024,2,48000,-16,experiment,0,even,288101,NA,90429,141239,85316,413989,413417,413954,414580,415568,246261,NA,70019,70019,414816,413452,NA,2399,NA,NA,327267,2399,416018,NA,144589,413414,413989,Stroop CI,81,424902,87,yes,1366,BLUE
60,93.18181818,yes,93.18181818,21,4843.602273,4843.602273,#ffffff,no,C,v;b;n;m,legacy,I have read and understood the information shown above,legacy,legacy,blue,0,con,uniform,1,1,1,NA,0,0,0,0,0,83,83,83,83,83,0,0,5,0,83,83,0,0,NA,0,83,0,83,NA,0,83,83,12/07/2016 14:49,The main experiment item,yes,b,CI_RSI2000.osexp,C:\Users\Marci\Documents\Lab,no,mono,no,18,no,black,no,Ok,NA,yes,Male,768,legacy,47,35,C:/Users/User/Dropbox/Sussex/Consciousness and control/Exp 1 - stroop suggestion and PCE/Methods/Palfi_script/laptop_size/subject-8.csv,legacy,Jazzy James,3.1.4,0,b,b,space,NA,1335,1335,218081,NA,2,legacy,1024,2,48000,-16,experiment,0,even,288101,NA,90429,141239,85316,416735,416162,416699,418074,419062,246261,NA,70019,70019,418310,416197,NA,2399,NA,NA,327267,2399,419512,NA,144589,416160,416735,Stroop CI,82,426237,88,yes,1366,BLUE
46,93.25842697,yes,93.25842697,21,4795.224719,4795.224719,#ffffff,no,C,v;b;n;m,legacy,I have read and understood the information shown above,legacy,legacy,red,0,con,uniform,1,1,1,NA,0,0,0,0,0,84,84,84,84,84,0,0,5,0,84,84,0,0,NA,0,84,0,84,NA,0,84,84,12/07/2016 14:49,The main experiment item,yes,v,CI_RSI2000.osexp,C:\Users\Marci\Documents\Lab,no,mono,no,18,no,black,no,Ok,NA,yes,Male,768,legacy,48,35,C:/Users/User/Dropbox/Sussex/Consciousness and control/Exp 1 - stroop suggestion and PCE/Methods/Palfi_script/laptop_size/subject-8.csv,legacy,Jazzy James,3.1.4,0,v,v,space,NA,538,538,218081,NA,2,legacy,1024,2,48000,-16,experiment,0,even,288101,NA,90429,141239,85316,420225,419653,420190,420768,421756,246261,NA,70019,70019,421004,419688,NA,2399,NA,NA,327267,2399,422206,NA,144589,419651,420225,Stroop CI,83,426775,89,yes,1366,RED
114,93.33333333,yes,93.33333333,21,4747.866667,4747.866667,#ffffff,no,C,v;b;n;m,legacy,I have read and understood the information shown above,legacy,legacy,#ffef36,0,con,uniform,1,1,1,NA,0,0,0,0,0,85,85,85,85,85,0,0,5,0,85,85,0,0,NA,0,85,0,85,NA,0,85,85,12/07/2016 14:49,The main experiment item,yes,m,CI_RSI2000.osexp,C:\Users\Marci\Documents\Lab,no,mono,no,18,no,black,no,Ok,NA,yes,Male,768,legacy,49,35,C:/Users/User/Dropbox/Sussex/Consciousness and control/Exp 1 - stroop suggestion and PCE/Methods/Palfi_script/laptop_size/subject-8.csv,legacy,Jazzy James,3.1.4,0,m,m,space,NA,533,533,218081,NA,2,legacy,1024,2,48000,-16,experiment,0,even,288101,NA,90429,141239,85316,422904,422332,422869,423442,424430,246261,NA,70019,70019,423678,422367,NA,2399,NA,NA,327267,2399,424880,NA,144589,422329,422904,Stroop CI,84,427308,90,yes,1366,YELLOW
63,93.40659341,yes,93.40659341,21,4702.769231,4702.769231,#ffffff,no,C,v;b;n;m,legacy,I have read and understood the information shown above,legacy,legacy,blue,0,con,uniform,1,1,1,NA,0,0,0,0,0,86,86,86,86,86,0,0,5,0,86,86,0,0,NA,0,86,0,86,NA,0,86,86,12/07/2016 14:49,The main experiment item,yes,b,CI_RSI2000.osexp,C:\Users\Marci\Documents\Lab,no,mono,no,18,no,black,no,Ok,NA,yes,Male,768,legacy,50,35,C:/Users/User/Dropbox/Sussex/Consciousness and control/Exp 1 - stroop suggestion and PCE/Methods/Palfi_script/laptop_size/subject-8.csv,legacy,Jazzy James,3.1.4,0,b,b,space,NA,644,644,218081,NA,2,legacy,1024,2,48000,-16,experiment,0,even,288101,NA,90429,141239,85316,425557,424985,425522,426205,427194,246261,NA,70019,70019,426442,425020,NA,2399,NA,NA,327267,2399,427644,NA,144589,424982,425557,Stroop CI,85,427952,91,yes,1366,BLUE
106,93.47826087,yes,93.47826087,21,4657.347826,4657.347826,#ffffff,no,C,v;b;n;m,legacy,I have read and understood the information shown above,legacy,legacy,#ffef36,0,con,uniform,1,1,1,NA,0,0,0,0,0,87,87,87,87,87,0,0,5,0,87,87,0,0,NA,0,87,0,87,NA,0,87,87,12/07/2016 14:49,The main experiment item,yes,m,CI_RSI2000.osexp,C:\Users\Marci\Documents\Lab,no,mono,no,18,no,black,no,Ok,NA,yes,Male,768,legacy,51,35,C:/Users/User/Dropbox/Sussex/Consciousness and control/Exp 1 - stroop suggestion and PCE/Methods/Palfi_script/laptop_size/subject-8.csv,legacy,Jazzy James,3.1.4,0,m,m,space,NA,524,524,218081,NA,2,legacy,1024,2,48000,-16,experiment,0,even,288101,NA,90429,141239,85316,428358,427786,428323,428885,429873,246261,NA,70019,70019,429121,427821,NA,2399,NA,NA,327267,2399,430323,NA,144589,427783,428358,Stroop CI,86,428476,92,yes,1366,YELLOW
14,93.5483871,yes,93.5483871,21,4613.376344,4613.376344,#ffffff,no,C,v;b;n;m,legacy,I have read and understood the information shown above,legacy,legacy,red,0,neutral,uniform,1,1,1,NA,0,0,0,0,0,88,88,88,88,88,0,0,5,0,88,88,0,0,NA,0,88,0,88,NA,0,88,88,12/07/2016 14:49,The main experiment item,yes,v,CI_RSI2000.osexp,C:\Users\Marci\Documents\Lab,no,mono,no,18,no,black,no,Ok,NA,yes,Male,768,legacy,52,35,C:/Users/User/Dropbox/Sussex/Consciousness and control/Exp 1 - stroop suggestion and PCE/Methods/Palfi_script/laptop_size/subject-8.csv,legacy,Jazzy James,3.1.4,0,v,v,space,NA,568,568,218081,NA,2,legacy,1024,2,48000,-16,experiment,0,even,288101,NA,90429,141239,85316,431039,430467,431004,431610,432598,246261,NA,70019,70019,431846,430502,NA,2399,NA,NA,327267,2399,433048,NA,144589,430464,431039,Stroop CI,87,429044,93,yes,1366,KNIFE
72,93.61702128,yes,93.61702128,21,4571.255319,4571.255319,#ffffff,no,C,v;b;n;m,legacy,I have read and understood the information shown above,legacy,legacy,blue,0,con,uniform,1,1,1,NA,0,0,0,0,0,89,89,89,89,89,0,0,5,0,89,89,0,0,NA,0,89,0,89,NA,0,89,89,12/07/2016 14:49,The main experiment item,yes,b,CI_RSI2000.osexp,C:\Users\Marci\Documents\Lab,no,mono,no,18,no,black,no,Ok,NA,yes,Male,768,legacy,53,35,C:/Users/User/Dropbox/Sussex/Consciousness and control/Exp 1 - stroop suggestion and PCE/Methods/Palfi_script/laptop_size/subject-8.csv,legacy,Jazzy James,3.1.4,0,b,b,space,NA,654,654,218081,NA,2,legacy,1024,2,48000,-16,experiment,0,even,288101,NA,90429,141239,85316,433757,433185,433722,434415,435403,246261,NA,70019,70019,434651,433220,NA,2399,NA,NA,327267,2399,435853,NA,144589,433182,433757,Stroop CI,88,429698,94,yes,1366,BLUE
32,93.68421053,yes,93.68421053,21,4529.094737,4529.094737,#ffffff,no,C,v;b;n;m,legacy,I have read and understood the information shown above,legacy,legacy,red,0,con,uniform,1,1,1,NA,0,0,0,0,0,90,90,90,90,90,0,0,5,0,90,90,0,0,NA,0,90,0,90,NA,0,90,90,12/07/2016 14:49,The main experiment item,yes,v,CI_RSI2000.osexp,C:\Users\Marci\Documents\Lab,no,mono,no,18,no,black,no,Ok,NA,yes,Male,768,legacy,54,35,C:/Users/User/Dropbox/Sussex/Consciousness and control/Exp 1 - stroop suggestion and PCE/Methods/Palfi_script/laptop_size/subject-8.csv,legacy,Jazzy James,3.1.4,0,v,v,space,NA,566,566,218081,NA,2,legacy,1024,2,48000,-16,experiment,0,even,288101,NA,90429,141239,85316,436535,435963,436500,437105,438093,246261,NA,70019,70019,437341,435998,NA,2399,NA,NA,327267,2399,438543,NA,144589,435960,436535,Stroop CI,89,430264,95,yes,1366,RED
99,93.75,yes,93.75,21,4487.510417,4487.510417,#ffffff,no,C,v;b;n;m,legacy,I have read and understood the information shown above,legacy,legacy,#ffef36,0,con,uniform,1,1,1,NA,0,0,0,0,0,91,91,91,91,91,0,0,5,0,91,91,0,0,NA,0,91,0,91,NA,0,91,91,12/07/2016 14:49,The main experiment item,yes,m,CI_RSI2000.osexp,C:\Users\Marci\Documents\Lab,no,mono,no,18,no,black,no,Ok,NA,yes,Male,768,legacy,55,35,C:/Users/User/Dropbox/Sussex/Consciousness and control/Exp 1 - stroop suggestion and PCE/Methods/Palfi_script/laptop_size/subject-8.csv,legacy,Jazzy James,3.1.4,0,m,m,space,NA,537,537,218081,NA,2,legacy,1024,2,48000,-16,experiment,0,even,288101,NA,90429,141239,85316,439258,438686,439223,439799,440787,246261,NA,70019,70019,440035,438721,NA,2399,NA,NA,327267,2399,441237,NA,144589,438683,439258,Stroop CI,90,430801,96,yes,1366,YELLOW
74,93.81443299,yes,93.81443299,21,4444.85567,4444.85567,#ffffff,no,C,v;b;n;m,legacy,I have read and understood the information shown above,legacy,legacy,green,0,con,uniform,1,1,1,NA,0,0,0,0,0,92,92,92,92,92,0,0,5,0,92,92,0,0,NA,0,92,0,92,NA,0,92,92,12/07/2016 14:49,The main experiment item,yes,n,CI_RSI2000.osexp,C:\Users\Marci\Documents\Lab,no,mono,no,18,no,black,no,Ok,NA,yes,Male,768,legacy,56,35,C:/Users/User/Dropbox/Sussex/Consciousness and control/Exp 1 - stroop suggestion and PCE/Methods/Palfi_script/laptop_size/subject-8.csv,legacy,Jazzy James,3.1.4,0,n,n,space,NA,350,350,218081,NA,2,legacy,1024,2,48000,-16,experiment,0,even,288101,NA,90429,141239,85316,441948,441376,441913,442302,443290,246261,NA,70019,70019,442538,441411,NA,2399,NA,NA,327267,2399,443740,NA,144589,441374,441948,Stroop CI,91,431151,97,yes,1366,GREEN
118,93.87755102,yes,93.87755102,21,4404.928571,4404.928571,#ffffff,no,C,v;b;n;m,legacy,I have read and understood the information shown above,legacy,legacy,#ffef36,0,con,uniform,1,1,1,NA,0,0,0,0,0,93,93,93,93,93,0,0,5,0,93,93,0,0,NA,0,93,0,93,NA,0,93,93,12/07/2016 14:49,The main experiment item,yes,m,CI_RSI2000.osexp,C:\Users\Marci\Documents\Lab,no,mono,no,18,no,black,no,Ok,NA,yes,Male,768,legacy,57,35,C:/Users/User/Dropbox/Sussex/Consciousness and control/Exp 1 - stroop suggestion and PCE/Methods/Palfi_script/laptop_size/subject-8.csv,legacy,Jazzy James,3.1.4,0,m,m,space,NA,532,532,218081,NA,2,legacy,1024,2,48000,-16,experiment,0,even,288101,NA,90429,141239,85316,444423,443851,444388,444959,445947,246261,NA,70019,70019,445195,443886,NA,2399,NA,NA,327267,2399,446397,NA,144589,443849,444423,Stroop CI,92,431683,98,yes,1366,YELLOW
55,93.93939394,yes,93.93939394,21,4364.878788,4364.878788,#ffffff,no,C,v;b;n;m,legacy,I have read and understood the information shown above,legacy,legacy,blue,0,con,uniform,1,1,1,NA,0,0,0,0,0,94,94,94,94,94,0,0,5,0,94,94,0,0,NA,0,94,0,94,NA,0,94,94,12/07/2016 14:49,The main experiment item,yes,b,CI_RSI2000.osexp,C:\Users\Marci\Documents\Lab,no,mono,no,18,no,black,no,Ok,NA,yes,Male,768,legacy,58,35,C:/Users/User/Dropbox/Sussex/Consciousness and control/Exp 1 - stroop suggestion and PCE/Methods/Palfi_script/laptop_size/subject-8.csv,legacy,Jazzy James,3.1.4,0,b,b,space,NA,440,440,218081,NA,2,legacy,1024,2,48000,-16,experiment,0,even,288101,NA,90429,141239,85316,447135,446563,447100,447579,448567,246261,NA,70019,70019,447815,446598,NA,2399,NA,NA,327267,2399,449017,NA,144589,446560,447135,Stroop CI,93,432123,99,yes,1366,BLUE
111,94,yes,94,21,4326.13,4326.13,#ffffff,no,C,v;b;n;m,legacy,I have read and understood the information shown above,legacy,legacy,#ffef36,0,con,uniform,1,1,1,NA,0,0,0,0,0,95,95,95,95,95,0,0,5,0,95,95,0,0,NA,0,95,0,95,NA,0,95,95,12/07/2016 14:49,The main experiment item,yes,m,CI_RSI2000.osexp,C:\Users\Marci\Documents\Lab,no,mono,no,18,no,black,no,Ok,NA,yes,Male,768,legacy,59,35,C:/Users/User/Dropbox/Sussex/Consciousness and control/Exp 1 - stroop suggestion and PCE/Methods/Palfi_script/laptop_size/subject-8.csv,legacy,Jazzy James,3.1.4,0,m,m,space,NA,490,490,218081,NA,2,legacy,1024,2,48000,-16,experiment,0,even,288101,NA,90429,141239,85316,449701,449129,449666,450195,451183,246261,NA,70019,70019,450431,449164,NA,2399,NA,NA,327267,2399,451633,NA,144589,449127,449701,Stroop CI,94,432613,100,yes,1366,YELLOW
25,94.05940594,yes,94.05940594,21,4288.792079,4288.792079,#ffffff,no,C,v;b;n;m,legacy,I have read and understood the information shown above,legacy,legacy,red,0,con,uniform,1,1,1,NA,0,0,0,0,0,96,96,96,96,96,0,0,5,0,96,96,0,0,NA,0,96,0,96,NA,0,96,96,12/07/2016 14:49,The main experiment item,yes,v,CI_RSI2000.osexp,C:\Users\Marci\Documents\Lab,no,mono,no,18,no,black,no,Ok,NA,yes,Male,768,legacy,60,35,C:/Users/User/Dropbox/Sussex/Consciousness and control/Exp 1 - stroop suggestion and PCE/Methods/Palfi_script/laptop_size/subject-8.csv,legacy,Jazzy James,3.1.4,0,v,v,space,NA,555,555,218081,NA,2,legacy,1024,2,48000,-16,experiment,0,even,288101,NA,90429,141239,85316,452323,451751,452288,452881,453871,246261,NA,70019,70019,453118,451786,NA,2399,NA,NA,327267,2399,454321,NA,144589,451749,452323,Stroop CI,95,433168,101,yes,1366,RED
45,93.1372549,yes,93.1372549,21,4251.205882,4251.205882,#ffffff,no,C,v;b;n;m,legacy,I have read and understood the information shown above,legacy,legacy,red,0,con,uniform,0,0,1,NA,0,0,0,0,0,97,97,97,97,97,0,0,5,0,97,97,0,0,NA,0,97,0,97,NA,0,97,97,12/07/2016 14:49,The main experiment item,yes,v,CI_RSI2000.osexp,C:\Users\Marci\Documents\Lab,no,mono,no,18,no,black,no,Ok,NA,yes,Male,768,legacy,61,35,C:/Users/User/Dropbox/Sussex/Consciousness and control/Exp 1 - stroop suggestion and PCE/Methods/Palfi_script/laptop_size/subject-8.csv,legacy,Jazzy James,3.1.4,0,m,m,space,NA,455,455,218081,NA,2,legacy,1024,2,48000,-16,experiment,0,even,288101,NA,90429,141239,85316,455002,454428,454966,455463,456451,246261,NA,70019,70019,453118,454464,NA,2399,NA,NA,455699,2399,456901,NA,144589,454426,455002,Stroop CI,95,433623,102,yes,1366,RED
69,93.2038835,yes,93.2038835,21,4216.970874,4216.970874,#ffffff,no,C,v;b;n;m,legacy,I have read and understood the information shown above,legacy,legacy,blue,0,con,uniform,1,1,1,NA,0,0,0,0,0,98,98,98,98,98,0,0,5,0,98,98,0,0,NA,0,98,0,98,NA,0,98,98,12/07/2016 14:49,The main experiment item,yes,b,CI_RSI2000.osexp,C:\Users\Marci\Documents\Lab,no,mono,no,18,no,black,no,Ok,NA,yes,Male,768,legacy,62,35,C:/Users/User/Dropbox/Sussex/Consciousness and control/Exp 1 - stroop suggestion and PCE/Methods/Palfi_script/laptop_size/subject-8.csv,legacy,Jazzy James,3.1.4,0,b,b,space,NA,725,725,218081,NA,2,legacy,1024,2,48000,-16,experiment,0,even,288101,NA,90429,141239,85316,457603,457030,457568,458331,459319,246261,NA,70019,70019,458567,457066,NA,2399,NA,NA,455699,2399,459769,NA,144589,457028,457603,Stroop CI,96,434348,103,yes,1366,BLUE
116,93.26923077,yes,93.26923077,21,4181.951923,4181.951923,#ffffff,no,C,v;b;n;m,legacy,I have read and understood the information shown above,legacy,legacy,#ffef36,0,con,uniform,1,1,1,NA,0,0,0,0,0,99,99,99,99,99,0,0,5,0,99,99,0,0,NA,0,99,0,99,NA,0,99,99,12/07/2016 14:49,The main experiment item,yes,m,CI_RSI2000.osexp,C:\Users\Marci\Documents\Lab,no,mono,no,18,no,black,no,Ok,NA,yes,Male,768,legacy,63,35,C:/Users/User/Dropbox/Sussex/Consciousness and control/Exp 1 - stroop suggestion and PCE/Methods/Palfi_script/laptop_size/subject-8.csv,legacy,Jazzy James,3.1.4,0,m,m,space,NA,575,575,218081,NA,2,legacy,1024,2,48000,-16,experiment,0,even,288101,NA,90429,141239,85316,460456,459884,460421,461035,462023,246261,NA,70019,70019,461271,459919,NA,2399,NA,NA,455699,2399,462473,NA,144589,459882,460456,Stroop CI,97,434923,104,yes,1366,YELLOW
2,93.33333333,yes,93.33333333,21,4155.857143,4155.857143,#ffffff,no,C,v;b;n;m,legacy,I have read and understood the information shown above,legacy,legacy,red,0,inc,uniform,1,1,1,NA,0,0,0,0,0,100,100,100,100,100,0,0,5,0,100,100,0,0,NA,0,100,0,100,NA,0,100,100,12/07/2016 14:49,The main experiment item,yes,v,CI_RSI2000.osexp,C:\Users\Marci\Documents\Lab,no,mono,no,18,no,black,no,Ok,NA,yes,Male,768,legacy,64,35,C:/Users/User/Dropbox/Sussex/Consciousness and control/Exp 1 - stroop suggestion and PCE/Methods/Palfi_script/laptop_size/subject-8.csv,legacy,Jazzy James,3.1.4,0,v,v,space,NA,1442,1442,218081,NA,2,legacy,1024,2,48000,-16,experiment,0,even,288101,NA,90429,141239,85316,463157,462584,463122,464603,465591,246261,NA,70019,70019,464839,462620,NA,2399,NA,NA,455699,2399,466041,NA,144589,462582,463157,Stroop CI,98,436365,105,yes,1366,BLUE
52,93.39622642,yes,93.39622642,21,4123.235849,4123.235849,#ffffff,no,C,v;b;n;m,legacy,I have read and understood the information shown above,legacy,legacy,blue,0,con,uniform,1,1,1,NA,0,0,0,0,0,101,101,101,101,101,0,0,5,0,101,101,0,0,NA,0,101,0,101,NA,0,101,101,12/07/2016 14:49,The main experiment item,yes,b,CI_RSI2000.osexp,C:\Users\Marci\Documents\Lab,no,mono,no,18,no,black,no,Ok,NA,yes,Male,768,legacy,65,35,C:/Users/User/Dropbox/Sussex/Consciousness and control/Exp 1 - stroop suggestion and PCE/Methods/Palfi_script/laptop_size/subject-8.csv,legacy,Jazzy James,3.1.4,0,b,b,space,NA,698,698,218081,NA,2,legacy,1024,2,48000,-16,experiment,0,even,288101,NA,90429,141239,85316,466757,466184,466722,467460,468449,246261,NA,70019,70019,467697,466220,NA,2399,NA,NA,455699,2399,468899,NA,144589,466182,466757,Stroop CI,99,437063,106,yes,1366,BLUE
100,93.45794393,yes,93.45794393,21,4090.074766,4090.074766,#ffffff,no,C,v;b;n;m,legacy,I have read and understood the information shown above,legacy,legacy,#ffef36,0,con,uniform,1,1,1,NA,0,0,0,0,0,102,102,102,102,102,0,0,5,0,102,102,0,0,NA,0,102,0,102,NA,0,102,102,12/07/2016 14:49,The main experiment item,yes,m,CI_RSI2000.osexp,C:\Users\Marci\Documents\Lab,no,mono,no,18,no,black,no,Ok,NA,yes,Male,768,legacy,66,35,C:/Users/User/Dropbox/Sussex/Consciousness and control/Exp 1 - stroop suggestion and PCE/Methods/Palfi_script/laptop_size/subject-8.csv,legacy,Jazzy James,3.1.4,0,m,m,space,NA,575,575,218081,NA,2,legacy,1024,2,48000,-16,experiment,0,even,288101,NA,90429,141239,85316,469614,469042,469579,470193,471181,246261,NA,70019,70019,470429,469077,NA,2399,NA,NA,455699,2399,471631,NA,144589,469039,469614,Stroop CI,100,437638,107,yes,1366,YELLOW
39,93.51851852,yes,93.51851852,21,4057.037037,4057.037037,#ffffff,no,C,v;b;n;m,legacy,I have read and understood the information shown above,legacy,legacy,red,0,con,uniform,1,1,1,NA,0,0,0,0,0,103,103,103,103,103,0,0,5,0,103,103,0,0,NA,0,103,0,103,NA,0,103,103,12/07/2016 14:49,The main experiment item,yes,v,CI_RSI2000.osexp,C:\Users\Marci\Documents\Lab,no,mono,no,18,no,black,no,Ok,NA,yes,Male,768,legacy,67,35,C:/Users/User/Dropbox/Sussex/Consciousness and control/Exp 1 - stroop suggestion and PCE/Methods/Palfi_script/laptop_size/subject-8.csv,legacy,Jazzy James,3.1.4,0,v,v,space,NA,522,522,218081,NA,2,legacy,1024,2,48000,-16,experiment,0,even,288101,NA,90429,141239,85316,472314,471742,472279,472839,473828,246261,NA,70019,70019,473076,471777,NA,2399,NA,NA,455699,2399,474278,NA,144589,471740,472314,Stroop CI,101,438160,108,yes,1366,RED
23,93.57798165,yes,93.57798165,21,4027.972477,4027.972477,#ffffff,no,C,v;b;n;m,legacy,I have read and understood the information shown above,legacy,legacy,#ffef36,0,neutral,uniform,1,1,1,NA,0,0,0,0,0,104,104,104,104,104,0,0,5,0,104,104,0,0,NA,0,104,0,104,NA,0,104,104,12/07/2016 14:49,The main experiment item,yes,m,CI_RSI2000.osexp,C:\Users\Marci\Documents\Lab,no,mono,no,18,no,black,no,Ok,NA,yes,Male,768,legacy,68,35,C:/Users/User/Dropbox/Sussex/Consciousness and control/Exp 1 - stroop suggestion and PCE/Methods/Palfi_script/laptop_size/subject-8.csv,legacy,Jazzy James,3.1.4,0,m,m,space,NA,889,889,218081,NA,2,legacy,1024,2,48000,-16,experiment,0,even,288101,NA,90429,141239,85316,474991,474419,474956,475883,476872,246261,NA,70019,70019,476120,474454,NA,2399,NA,NA,455699,2399,477322,NA,144589,474416,474991,Stroop CI,102,439049,109,yes,1366,SHIP
83,93.63636364,yes,93.63636364,21,3996.636364,3996.636364,#ffffff,no,C,v;b;n;m,legacy,I have read and understood the information shown above,legacy,legacy,green,0,con,uniform,1,1,1,NA,0,0,0,0,0,105,105,105,105,105,0,0,5,0,105,105,0,0,NA,0,105,0,105,NA,0,105,105,12/07/2016 14:49,The main experiment item,yes,n,CI_RSI2000.osexp,C:\Users\Marci\Documents\Lab,no,mono,no,18,no,black,no,Ok,NA,yes,Male,768,legacy,69,35,C:/Users/User/Dropbox/Sussex/Consciousness and control/Exp 1 - stroop suggestion and PCE/Methods/Palfi_script/laptop_size/subject-8.csv,legacy,Jazzy James,3.1.4,0,n,n,space,NA,581,581,218081,NA,2,legacy,1024,2,48000,-16,experiment,0,even,288101,NA,90429,141239,85316,478040,477468,478005,478625,479613,246261,NA,70019,70019,478861,477503,NA,2399,NA,NA,455699,2399,480063,NA,144589,477465,478040,Stroop CI,103,439630,110,yes,1366,GREEN
27,93.69369369,yes,93.69369369,21,3965.333333,3965.333333,#ffffff,no,C,v;b;n;m,legacy,I have read and understood the information shown above,legacy,legacy,red,0,con,uniform,1,1,1,NA,0,0,0,0,0,106,106,106,106,106,0,0,5,0,106,106,0,0,NA,0,106,0,106,NA,0,106,106,12/07/2016 14:49,The main experiment item,yes,v,CI_RSI2000.osexp,C:\Users\Marci\Documents\Lab,no,mono,no,18,no,black,no,Ok,NA,yes,Male,768,legacy,70,35,C:/Users/User/Dropbox/Sussex/Consciousness and control/Exp 1 - stroop suggestion and PCE/Methods/Palfi_script/laptop_size/subject-8.csv,legacy,Jazzy James,3.1.4,0,v,v,space,NA,522,522,218081,NA,2,legacy,1024,2,48000,-16,experiment,0,even,288101,NA,90429,141239,85316,480747,480174,480712,481273,482261,246261,NA,70019,70019,481509,480210,NA,2399,NA,NA,455699,2399,482711,NA,144589,480172,480747,Stroop CI,104,440152,111,yes,1366,RED
40,93.75,yes,93.75,21,3934.9375,3934.9375,#ffffff,no,C,v;b;n;m,legacy,I have read and understood the information shown above,legacy,legacy,red,0,con,uniform,1,1,1,NA,0,0,0,0,0,107,107,107,107,107,0,0,5,0,107,107,0,0,NA,0,107,0,107,NA,0,107,107,12/07/2016 14:49,The main experiment item,yes,v,CI_RSI2000.osexp,C:\Users\Marci\Documents\Lab,no,mono,no,18,no,black,no,Ok,NA,yes,Male,768,legacy,71,35,C:/Users/User/Dropbox/Sussex/Consciousness and control/Exp 1 - stroop suggestion and PCE/Methods/Palfi_script/laptop_size/subject-8.csv,legacy,Jazzy James,3.1.4,0,v,v,space,NA,561,561,218081,NA,2,legacy,1024,2,48000,-16,experiment,0,even,288101,NA,90429,141239,85316,483424,482852,483389,483989,484977,246261,NA,70019,70019,484225,482887,NA,2399,NA,NA,455699,2399,485427,NA,144589,482849,483424,Stroop CI,105,440713,112,yes,1366,RED
56,93.80530973,yes,93.80530973,21,3906.20354,3906.20354,#ffffff,no,C,v;b;n;m,legacy,I have read and understood the information shown above,legacy,legacy,blue,0,con,uniform,1,1,1,NA,0,0,0,0,0,108,108,108,108,108,0,0,5,0,108,108,0,0,NA,0,108,0,108,NA,0,108,108,12/07/2016 14:49,The main experiment item,yes,b,CI_RSI2000.osexp,C:\Users\Marci\Documents\Lab,no,mono,no,18,no,black,no,Ok,NA,yes,Male,768,legacy,72,35,C:/Users/User/Dropbox/Sussex/Consciousness and control/Exp 1 - stroop suggestion and PCE/Methods/Palfi_script/laptop_size/subject-8.csv,legacy,Jazzy James,3.1.4,0,b,b,space,NA,688,688,218081,NA,2,legacy,1024,2,48000,-16,experiment,0,even,288101,NA,90429,141239,85316,486136,485564,486101,486828,487816,246261,NA,70019,70019,487064,485599,NA,2399,NA,NA,455699,2399,488266,NA,144589,485561,486136,Stroop CI,106,441401,113,yes,1366,BLUE
47,93.85964912,yes,93.85964912,21,3876.263158,3876.263158,#ffffff,no,C,v;b;n;m,legacy,I have read and understood the information shown above,legacy,legacy,red,0,con,uniform,1,1,1,NA,0,0,0,0,0,109,109,109,109,109,0,0,5,0,109,109,0,0,NA,0,109,0,109,NA,0,109,109,12/07/2016 14:49,The main experiment item,yes,v,CI_RSI2000.osexp,C:\Users\Marci\Documents\Lab,no,mono,no,18,no,black,no,Ok,NA,yes,Male,768,legacy,73,35,C:/Users/User/Dropbox/Sussex/Consciousness and control/Exp 1 - stroop suggestion and PCE/Methods/Palfi_script/laptop_size/subject-8.csv,legacy,Jazzy James,3.1.4,0,v,v,space,NA,493,493,218081,NA,2,legacy,1024,2,48000,-16,experiment,0,even,288101,NA,90429,141239,85316,488981,488408,488946,489478,490466,246261,NA,70019,70019,489714,488443,NA,2399,NA,NA,455699,2399,490916,NA,144589,488405,488981,Stroop CI,107,441894,114,yes,1366,RED
37,93.91304348,yes,93.91304348,21,3847.121739,3847.121739,#ffffff,no,C,v;b;n;m,legacy,I have read and understood the information shown above,legacy,legacy,red,0,con,uniform,1,1,1,NA,0,0,0,0,0,110,110,110,110,110,0,0,5,0,110,110,0,0,NA,0,110,0,110,NA,0,110,110,12/07/2016 14:49,The main experiment item,yes,v,CI_RSI2000.osexp,C:\Users\Marci\Documents\Lab,no,mono,no,18,no,black,no,Ok,NA,yes,Male,768,legacy,74,35,C:/Users/User/Dropbox/Sussex/Consciousness and control/Exp 1 - stroop suggestion and PCE/Methods/Palfi_script/laptop_size/subject-8.csv,legacy,Jazzy James,3.1.4,0,v,v,space,NA,525,525,218081,NA,2,legacy,1024,2,48000,-16,experiment,0,even,288101,NA,90429,141239,85316,491624,491052,491589,492153,493141,246261,NA,70019,70019,492389,491087,NA,2399,NA,NA,455699,2399,493591,NA,144589,491049,491624,Stroop CI,108,442419,115,yes,1366,RED
3,93.96551724,yes,93.96551724,21,3818.689655,3818.689655,#ffffff,no,C,v;b;n;m,legacy,I have read and understood the information shown above,legacy,legacy,red,0,inc,uniform,1,1,1,NA,0,0,0,0,0,111,111,111,111,111,0,0,5,0,111,111,0,0,NA,0,111,0,111,NA,0,111,111,12/07/2016 14:49,The main experiment item,yes,v,CI_RSI2000.osexp,C:\Users\Marci\Documents\Lab,no,mono,no,18,no,black,no,Ok,NA,yes,Male,768,legacy,75,35,C:/Users/User/Dropbox/Sussex/Consciousness and control/Exp 1 - stroop suggestion and PCE/Methods/Palfi_script/laptop_size/subject-8.csv,legacy,Jazzy James,3.1.4,0,v,v,space,NA,549,549,218081,NA,2,legacy,1024,2,48000,-16,experiment,0,even,288101,NA,90429,141239,85316,494303,493731,494268,494856,495844,246261,NA,70019,70019,495092,493766,NA,2399,NA,NA,455699,2399,496294,NA,144589,493728,494303,Stroop CI,109,442968,116,yes,1366,GREEN
71,94.01709402,yes,94.01709402,21,3791.393162,3791.393162,#ffffff,no,C,v;b;n;m,legacy,I have read and understood the information shown above,legacy,legacy,blue,0,con,uniform,1,1,1,NA,0,0,0,0,0,112,112,112,112,112,0,0,5,0,112,112,0,0,NA,0,112,0,112,NA,0,112,112,12/07/2016 14:49,The main experiment item,yes,b,CI_RSI2000.osexp,C:\Users\Marci\Documents\Lab,no,mono,no,18,no,black,no,Ok,NA,yes,Male,768,legacy,76,35,C:/Users/User/Dropbox/Sussex/Consciousness and control/Exp 1 - stroop suggestion and PCE/Methods/Palfi_script/laptop_size/subject-8.csv,legacy,Jazzy James,3.1.4,0,b,b,space,NA,625,625,218081,NA,2,legacy,1024,2,48000,-16,experiment,0,even,288101,NA,90429,141239,85316,497014,496442,496979,497644,498633,246261,NA,70019,70019,497881,496477,NA,2399,NA,NA,455699,2399,499083,NA,144589,496439,497014,Stroop CI,110,443593,117,yes,1366,BLUE
28,93.22033898,yes,93.22033898,21,3764.262712,3764.262712,#ffffff,no,C,v;b;n;m,legacy,I have read and understood the information shown above,legacy,legacy,red,0,con,uniform,0,0,1,NA,0,0,0,0,0,113,113,113,113,113,0,0,5,0,113,113,0,0,NA,0,113,0,113,NA,0,113,113,12/07/2016 14:49,The main experiment item,yes,v,CI_RSI2000.osexp,C:\Users\Marci\Documents\Lab,no,mono,no,18,no,black,no,Ok,NA,yes,Male,768,legacy,77,35,C:/Users/User/Dropbox/Sussex/Consciousness and control/Exp 1 - stroop suggestion and PCE/Methods/Palfi_script/laptop_size/subject-8.csv,legacy,Jazzy James,3.1.4,0,b,b,space,NA,590,590,218081,NA,2,legacy,1024,2,48000,-16,experiment,0,even,288101,NA,90429,141239,85316,499803,499231,499768,500396,501385,246261,NA,70019,70019,497881,499266,NA,2399,NA,NA,500633,2399,501835,NA,144589,499228,499803,Stroop CI,110,444183,118,yes,1366,RED
11,93.27731092,yes,93.27731092,21,3736.453782,3736.453782,#ffffff,no,C,v;b;n;m,legacy,I have read and understood the information shown above,legacy,legacy,blue,0,inc,uniform,1,1,1,NA,0,0,0,0,0,114,114,114,114,114,0,0,5,0,114,114,0,0,NA,0,114,0,114,NA,0,114,114,12/07/2016 14:49,The main experiment item,yes,b,CI_RSI2000.osexp,C:\Users\Marci\Documents\Lab,no,mono,no,18,no,black,no,Ok,NA,yes,Male,768,legacy,78,35,C:/Users/User/Dropbox/Sussex/Consciousness and control/Exp 1 - stroop suggestion and PCE/Methods/Palfi_script/laptop_size/subject-8.csv,legacy,Jazzy James,3.1.4,0,b,b,space,NA,455,455,218081,NA,2,legacy,1024,2,48000,-16,experiment,0,even,288101,NA,90429,141239,85316,502546,501974,502511,503004,503992,246261,NA,70019,70019,503240,502009,NA,2399,NA,NA,500633,2399,504442,NA,144589,501972,502546,Stroop CI,111,444638,119,yes,1366,YELLOW
33,93.33333333,yes,93.33333333,21,3710.316667,3710.316667,#ffffff,no,C,v;b;n;m,legacy,I have read and understood the information shown above,legacy,legacy,red,0,con,uniform,1,1,1,NA,0,0,0,0,0,115,115,115,115,115,0,0,5,0,115,115,0,0,NA,0,115,0,115,NA,0,115,115,12/07/2016 14:49,The main experiment item,yes,v,CI_RSI2000.osexp,C:\Users\Marci\Documents\Lab,no,mono,no,18,no,black,no,Ok,NA,yes,Male,768,legacy,79,35,C:/Users/User/Dropbox/Sussex/Consciousness and control/Exp 1 - stroop suggestion and PCE/Methods/Palfi_script/laptop_size/subject-8.csv,legacy,Jazzy James,3.1.4,0,v,v,space,NA,600,600,218081,NA,2,legacy,1024,2,48000,-16,experiment,0,even,288101,NA,90429,141239,85316,505158,504586,505123,505762,506750,246261,NA,70019,70019,505998,504621,NA,2399,NA,NA,500633,2399,507200,NA,144589,504583,505158,Stroop CI,112,445238,120,yes,1366,RED
6,93.38842975,yes,93.38842975,21,3686.115702,3686.115702,#ffffff,no,C,v;b;n;m,legacy,I have read and understood the information shown above,legacy,legacy,red,0,inc,uniform,1,1,1,NA,0,0,0,0,0,116,116,116,116,116,0,0,5,0,116,116,0,0,NA,0,116,0,116,NA,0,116,116,12/07/2016 14:49,The main experiment item,yes,v,CI_RSI2000.osexp,C:\Users\Marci\Documents\Lab,no,mono,no,18,no,black,no,Ok,NA,yes,Male,768,legacy,80,35,C:/Users/User/Dropbox/Sussex/Consciousness and control/Exp 1 - stroop suggestion and PCE/Methods/Palfi_script/laptop_size/subject-8.csv,legacy,Jazzy James,3.1.4,0,v,v,space,NA,782,782,218081,NA,2,legacy,1024,2,48000,-16,experiment,0,even,288101,NA,90429,141239,85316,507916,507344,507881,508702,509690,246261,NA,70019,70019,508938,507379,NA,2399,NA,NA,500633,2399,510140,NA,144589,507341,507916,Stroop CI,113,446020,121,yes,1366,YELLOW
