"ID","acc","accept_status","accuracy","age","average_response_time","avg_rt","background","bidi","block","buttons","canvas_backend","checkbox_status","clock_backend","color_backend","colour","compensation","congruency","coordinates","correct","correct_answer","correct_button_block","correct_new_keyboard_response","count_C","count_I","count_Instruction","count_Practice_start","count_age","count_answer","count_blank","count_blank2","count_blank3","count_blank_4","count_break","count_break2","count_button_block","count_consent_form","count_correct_feedback","count_cross","count_end","count_experiment","count_feedback","count_gender","count_incorrect_feedback","count_information_sheet","count_logger","count_new_keyboard_response","count_practice","count_stroop","count_target","datetime","description","disable_garbage_collection","expected","experiment_path","font_bold","font_family","font_italic","font_size","font_underline","foreground","form_clicks","form_response","form_var","fullscreen","gender","height","keyboard_backend","logfile","mouse_backend","opensesame_codename","opensesame_version","repeat_cycle","response","response_answer","response_button_block","response_new_keyboard_response","response_time","response_time_answer","response_time_button_block","response_time_new_keyboard_response","round_decimals","sampler_backend","sound_buf_size","sound_channels","sound_freq","sound_sample_size","start","subject_nr","subject_parity","time_C","time_I","time_Instruction","time_Practice_start","time_age","time_answer","time_blank","time_blank2","time_blank3","time_blank_4","time_break","time_break2","time_button_block","time_consent_form","time_correct_feedback","time_cross","time_end","time_experiment","time_feedback","time_gender","time_incorrect_feedback","time_information_sheet","time_logger","time_new_keyboard_response","time_practice","time_stroop","time_target","title","total_correct","total_response_time","total_responses","uniform_coordinates","width","word"
"2","75","yes","75","25","16336","16336","#ffffff","no","practice","v;b;n;m","legacy","I have read and understood the information shown above","legacy","legacy","red","0","inc","uniform","0","0","1","NA","0","0","0","0","0","0","0","0","0","0","0","0","5","0","0","0","0","0","NA","0","0","0","0","NA","0","0","0","12/06/16 15:22:21","The main experiment item","yes","v","W:\Sussex\Consciousness and control\Exp 1 - stroop suggestion and PCE\Methods\Palfi_script","no","mono","no","18","no","black","no","Ok","NA","no","Female","768","legacy","C:/Users/User/Dropbox/Sussex/Consciousness and control/Exp 1 - stroop suggestion and PCE/Methods/Palfi_script/laptop_size/subject-4.csv","legacy","Interactive Ising","3.0.2","0","n","n","space","NA","1605","1605","2525","NA","2","legacy","1024","2","48000","-16","experiment","4","even","NA","NA","103067","159483","91658","162681","162108","162646","164289","165279","NA","NA","159484","82496","NA","162143","NA","2200","NA","NA","164525","2200","165729","NA","162010","162106","162681","Stroop IC","3","65344","4","yes","1366","GREEN"
"35","80","yes","80","25","13343","13343","#ffffff","no","practice","v;b;n;m","legacy","I have read and understood the information shown above","legacy","legacy","#ffef36","0","neutral","uniform","1","1","1","NA","0","0","0","0","0","1","1","1","1","1","0","0","5","0","1","1","0","0","NA","0","1","0","1","NA","0","1","1","12/06/16 15:22:21","The main experiment item","yes","m","W:\Sussex\Consciousness and control\Exp 1 - stroop suggestion and PCE\Methods\Palfi_script","no","mono","no","18","no","black","no","Ok","NA","no","Female","768","legacy","C:/Users/User/Dropbox/Sussex/Consciousness and control/Exp 1 - stroop suggestion and PCE/Methods/Palfi_script/laptop_size/subject-4.csv","legacy","Interactive Ising","3.0.2","0","m","m","space","NA","1373","1373","2525","NA","2","legacy","1024","2","48000","-16","experiment","4","even","NA","NA","103067","159483","91658","166514","165942","166479","167890","168878","NA","NA","159484","82496","168126","165977","NA","2200","NA","NA","164525","2200","169328","NA","162010","165940","166514","Stroop IC","4","66717","5","yes","1366","SHIP"
"7","66.6666666667","yes","66.6666666667","25","11287","11287","#ffffff","no","practice","v;b;n;m","legacy","I have read and understood the information shown above","legacy","legacy","green","0","inc","uniform","0","0","1","NA","0","0","0","0","0","2","2","2","2","2","0","0","5","0","2","2","0","0","NA","0","2","0","2","NA","0","2","2","12/06/16 15:22:21","The main experiment item","yes","n","W:\Sussex\Consciousness and control\Exp 1 - stroop suggestion and PCE\Methods\Palfi_script","no","mono","no","18","no","black","no","Ok","NA","no","Female","768","legacy","C:/Users/User/Dropbox/Sussex/Consciousness and control/Exp 1 - stroop suggestion and PCE/Methods/Palfi_script/laptop_size/subject-4.csv","legacy","Interactive Ising","3.0.2","0","b","b","space","NA","1010","1010","2525","NA","2","legacy","1024","2","48000","-16","experiment","4","even","NA","NA","103067","159483","91658","170041","169469","170006","171054","172042","NA","NA","159484","82496","168126","169504","NA","2200","NA","NA","171290","2200","172492","NA","162010","169467","170041","Stroop IC","4","67727","6","yes","1366","RED"
"6","57.1428571429","yes","57.1428571429","25","9834","9834","#ffffff","no","practice","v;b;n;m","legacy","I have read and understood the information shown above","legacy","legacy","blue","0","inc","uniform","0","0","1","NA","0","0","0","0","0","3","3","3","3","3","0","0","5","0","3","3","0","0","NA","0","3","0","3","NA","0","3","3","12/06/16 15:22:21","The main experiment item","yes","b","W:\Sussex\Consciousness and control\Exp 1 - stroop suggestion and PCE\Methods\Palfi_script","no","mono","no","18","no","black","no","Ok","NA","no","Female","768","legacy","C:/Users/User/Dropbox/Sussex/Consciousness and control/Exp 1 - stroop suggestion and PCE/Methods/Palfi_script/laptop_size/subject-4.csv","legacy","Interactive Ising","3.0.2","0","v","v","space","NA","1111","1111","2525","NA","2","legacy","1024","2","48000","-16","experiment","4","even","NA","NA","103067","159483","91658","173192","172620","173157","174305","175293","NA","NA","159484","82496","168126","172655","NA","2200","NA","NA","174541","2200","175743","NA","162010","172617","173192","Stroop IC","4","68838","7","yes","1366","YELLOW"
"16","62.5","yes","62.5","25","8808","8808","#ffffff","no","practice","v;b;n;m","legacy","I have read and understood the information shown above","legacy","legacy","blue","0","con","uniform","1","1","1","NA","0","0","0","0","0","4","4","4","4","4","0","0","5","0","4","4","0","0","NA","0","4","0","4","NA","0","4","4","12/06/16 15:22:21","The main experiment item","yes","b","W:\Sussex\Consciousness and control\Exp 1 - stroop suggestion and PCE\Methods\Palfi_script","no","mono","no","18","no","black","no","Ok","NA","no","Female","768","legacy","C:/Users/User/Dropbox/Sussex/Consciousness and control/Exp 1 - stroop suggestion and PCE/Methods/Palfi_script/laptop_size/subject-4.csv","legacy","Interactive Ising","3.0.2","0","b","b","space","NA","1632","1632","2525","NA","2","legacy","1024","2","48000","-16","experiment","4","even","NA","NA","103067","159483","91658","176479","175907","176444","178114","179102","NA","NA","159484","82496","178350","175942","NA","2200","NA","NA","174541","2200","179558","NA","162010","175905","176479","Stroop IC","5","70470","8","yes","1366","BLUE"
"23","66.6666666667","yes","66.6666666667","25","7914","7914","#ffffff","no","practice","v;b;n;m","legacy","I have read and understood the information shown above","legacy","legacy","#ffef36","0","con","uniform","1","1","1","NA","0","0","0","0","0","5","5","5","5","5","0","0","5","0","5","5","0","0","NA","0","5","0","5","NA","0","5","5","12/06/16 15:22:21","The main experiment item","yes","m","W:\Sussex\Consciousness and control\Exp 1 - stroop suggestion and PCE\Methods\Palfi_script","no","mono","no","18","no","black","no","Ok","NA","no","Female","768","legacy","C:/Users/User/Dropbox/Sussex/Consciousness and control/Exp 1 - stroop suggestion and PCE/Methods/Palfi_script/laptop_size/subject-4.csv","legacy","Interactive Ising","3.0.2","0","m","m","space","NA","764","764","2525","NA","2","legacy","1024","2","48000","-16","experiment","4","even","NA","NA","103067","159483","91658","180258","179686","180223","181025","182014","NA","NA","159484","82496","181262","179721","NA","2200","NA","NA","174541","2200","182464","NA","162010","179684","180258","Stroop IC","6","71234","9","yes","1366","YELLOW"
"25","70","yes","70","25","7296","7296","#ffffff","no","practice","v;b;n;m","legacy","I have read and understood the information shown above","legacy","legacy","red","0","neutral","uniform","1","1","1","NA","0","0","0","0","0","6","6","6","6","6","0","0","5","0","6","6","0","0","NA","0","6","0","6","NA","0","6","6","12/06/16 15:22:21","The main experiment item","yes","v","W:\Sussex\Consciousness and control\Exp 1 - stroop suggestion and PCE\Methods\Palfi_script","no","mono","no","18","no","black","no","Ok","NA","no","Female","768","legacy","C:/Users/User/Dropbox/Sussex/Consciousness and control/Exp 1 - stroop suggestion and PCE/Methods/Palfi_script/laptop_size/subject-4.csv","legacy","Interactive Ising","3.0.2","0","v","v","space","NA","1734","1734","2525","NA","2","legacy","1024","2","48000","-16","experiment","4","even","NA","NA","103067","159483","91658","183237","182665","183202","184973","185965","NA","NA","159484","82496","185212","182700","NA","2200","NA","NA","174541","2200","186415","NA","162010","182662","183237","Stroop IC","7","72968","10","yes","1366","SHIP"
"27","72.7272727273","yes","72.7272727273","25","6702","6702","#ffffff","no","practice","v;b;n;m","legacy","I have read and understood the information shown above","legacy","legacy","red","0","neutral","uniform","1","1","1","NA","0","0","0","0","0","7","7","7","7","7","0","0","5","0","7","7","0","0","NA","0","7","0","7","NA","0","7","7","12/06/16 15:22:21","The main experiment item","yes","v","W:\Sussex\Consciousness and control\Exp 1 - stroop suggestion and PCE\Methods\Palfi_script","no","mono","no","18","no","black","no","Ok","NA","no","Female","768","legacy","C:/Users/User/Dropbox/Sussex/Consciousness and control/Exp 1 - stroop suggestion and PCE/Methods/Palfi_script/laptop_size/subject-4.csv","legacy","Interactive Ising","3.0.2","0","v","v","space","NA","760","760","2525","NA","2","legacy","1024","2","48000","-16","experiment","4","even","NA","NA","103067","159483","91658","187139","186565","187103","187902","188890","NA","NA","159484","82496","188138","186600","NA","2200","NA","NA","174541","2200","189340","NA","162010","186563","187139","Stroop IC","8","73728","11","yes","1366","FLOWER"
"5","75","yes","75","25","6250","6250","#ffffff","no","practice","v;b;n;m","legacy","I have read and understood the information shown above","legacy","legacy","blue","0","inc","uniform","1","1","1","NA","0","0","0","0","0","8","8","8","8","8","0","0","5","0","8","8","0","0","NA","0","8","0","8","NA","0","8","8","12/06/16 15:22:21","The main experiment item","yes","b","W:\Sussex\Consciousness and control\Exp 1 - stroop suggestion and PCE\Methods\Palfi_script","no","mono","no","18","no","black","no","Ok","NA","no","Female","768","legacy","C:/Users/User/Dropbox/Sussex/Consciousness and control/Exp 1 - stroop suggestion and PCE/Methods/Palfi_script/laptop_size/subject-4.csv","legacy","Interactive Ising","3.0.2","0","b","b","space","NA","1278","1278","2525","NA","2","legacy","1024","2","48000","-16","experiment","4","even","NA","NA","103067","159483","91658","190080","189508","190045","191361","192349","NA","NA","159484","82496","191597","189543","NA","2200","NA","NA","174541","2200","192799","NA","162010","189505","190080","Stroop IC","9","75006","12","yes","1366","GREEN"
"26","76.9230769231","yes","76.9230769231","25","5855","5855","#ffffff","no","practice","v;b;n;m","legacy","I have read and understood the information shown above","legacy","legacy","red","0","neutral","uniform","1","1","1","NA","0","0","0","0","0","9","9","9","9","9","0","0","5","0","9","9","0","0","NA","0","9","0","9","NA","0","9","9","12/06/16 15:22:21","The main experiment item","yes","v","W:\Sussex\Consciousness and control\Exp 1 - stroop suggestion and PCE\Methods\Palfi_script","no","mono","no","18","no","black","no","Ok","NA","no","Female","768","legacy","C:/Users/User/Dropbox/Sussex/Consciousness and control/Exp 1 - stroop suggestion and PCE/Methods/Palfi_script/laptop_size/subject-4.csv","legacy","Interactive Ising","3.0.2","0","v","v","space","NA","1112","1112","2525","NA","2","legacy","1024","2","48000","-16","experiment","4","even","NA","NA","103067","159483","91658","193554","192982","193519","194668","195659","NA","NA","159484","82496","194907","193017","NA","2200","NA","NA","174541","2200","196109","NA","162010","192980","193554","Stroop IC","10","76118","13","yes","1366","KNIFE"
"28","78.5714285714","yes","78.5714285714","25","5508","5508","#ffffff","no","practice","v;b;n;m","legacy","I have read and understood the information shown above","legacy","legacy","blue","0","neutral","uniform","1","1","1","NA","0","0","0","0","0","10","10","10","10","10","0","0","5","0","10","10","0","0","NA","0","10","0","10","NA","0","10","10","12/06/16 15:22:21","The main experiment item","yes","b","W:\Sussex\Consciousness and control\Exp 1 - stroop suggestion and PCE\Methods\Palfi_script","no","mono","no","18","no","black","no","Ok","NA","no","Female","768","legacy","C:/Users/User/Dropbox/Sussex/Consciousness and control/Exp 1 - stroop suggestion and PCE/Methods/Palfi_script/laptop_size/subject-4.csv","legacy","Interactive Ising","3.0.2","0","b","b","space","NA","997","997","2525","NA","2","legacy","1024","2","48000","-16","experiment","4","even","NA","NA","103067","159483","91658","196832","196260","196797","197831","198822","NA","NA","159484","82496","198070","196295","NA","2200","NA","NA","174541","2200","199284","NA","162010","196258","196832","Stroop IC","11","77115","14","yes","1366","LOT"
"11","80","yes","80","25","5202","5202","#ffffff","no","practice","v;b;n;m","legacy","I have read and understood the information shown above","legacy","legacy","#ffef36","0","inc","uniform","1","1","1","NA","0","0","0","0","0","11","11","11","11","11","0","0","5","0","11","11","0","0","NA","0","11","0","11","NA","0","11","11","12/06/16 15:22:21","The main experiment item","yes","m","W:\Sussex\Consciousness and control\Exp 1 - stroop suggestion and PCE\Methods\Palfi_script","no","mono","no","18","no","black","no","Ok","NA","no","Female","768","legacy","C:/Users/User/Dropbox/Sussex/Consciousness and control/Exp 1 - stroop suggestion and PCE/Methods/Palfi_script/laptop_size/subject-4.csv","legacy","Interactive Ising","3.0.2","0","m","m","space","NA","916","916","2525","NA","2","legacy","1024","2","48000","-16","experiment","4","even","NA","NA","103067","159483","91658","200010","199437","199974","200929","201918","NA","NA","159484","82496","201166","199472","NA","2200","NA","NA","174541","2200","202368","NA","162010","199435","200010","Stroop IC","12","78031","15","yes","1366","BLUE"
"34","81.25","yes","81.25","25","4940","4940","#ffffff","no","practice","v;b;n;m","legacy","I have read and understood the information shown above","legacy","legacy","#ffef36","0","neutral","uniform","1","1","1","NA","0","0","0","0","0","12","12","12","12","12","0","0","5","0","12","12","0","0","NA","0","12","0","12","NA","0","12","12","12/06/16 15:22:21","The main experiment item","yes","m","W:\Sussex\Consciousness and control\Exp 1 - stroop suggestion and PCE\Methods\Palfi_script","no","mono","no","18","no","black","no","Ok","NA","no","Female","768","legacy","C:/Users/User/Dropbox/Sussex/Consciousness and control/Exp 1 - stroop suggestion and PCE/Methods/Palfi_script/laptop_size/subject-4.csv","legacy","Interactive Ising","3.0.2","0","m","m","space","NA","1013","1013","2525","NA","2","legacy","1024","2","48000","-16","experiment","4","even","NA","NA","103067","159483","91658","203099","202527","203064","204114","205103","NA","NA","159484","82496","204351","202562","NA","2200","NA","NA","174541","2200","205553","NA","162010","202524","203099","Stroop IC","13","79044","16","yes","1366","LOT"
"4","82.3529411765","yes","82.3529411765","25","4720","4720","#ffffff","no","practice","v;b;n;m","legacy","I have read and understood the information shown above","legacy","legacy","blue","0","inc","uniform","1","1","1","NA","0","0","0","0","0","13","13","13","13","13","0","0","5","0","13","13","0","0","NA","0","13","0","13","NA","0","13","13","12/06/16 15:22:21","The main experiment item","yes","b","W:\Sussex\Consciousness and control\Exp 1 - stroop suggestion and PCE\Methods\Palfi_script","no","mono","no","18","no","black","no","Ok","NA","no","Female","768","legacy","C:/Users/User/Dropbox/Sussex/Consciousness and control/Exp 1 - stroop suggestion and PCE/Methods/Palfi_script/laptop_size/subject-4.csv","legacy","Interactive Ising","3.0.2","0","b","b","space","NA","1205","1205","2525","NA","2","legacy","1024","2","48000","-16","experiment","4","even","NA","NA","103067","159483","91658","206254","205682","206219","207462","208450","NA","NA","159484","82496","207698","205717","NA","2200","NA","NA","174541","2200","208900","NA","162010","205679","206254","Stroop IC","14","80249","17","yes","1366","RED"
"31","83.3333333333","yes","83.3333333333","25","4539","4539","#ffffff","no","practice","v;b;n;m","legacy","I have read and understood the information shown above","legacy","legacy","green","0","neutral","uniform","1","1","1","NA","0","0","0","0","0","14","14","14","14","14","0","0","5","0","14","14","0","0","NA","0","14","0","14","NA","0","14","14","12/06/16 15:22:21","The main experiment item","yes","n","W:\Sussex\Consciousness and control\Exp 1 - stroop suggestion and PCE\Methods\Palfi_script","no","mono","no","18","no","black","no","Ok","NA","no","Female","768","legacy","C:/Users/User/Dropbox/Sussex/Consciousness and control/Exp 1 - stroop suggestion and PCE/Methods/Palfi_script/laptop_size/subject-4.csv","legacy","Interactive Ising","3.0.2","0","n","n","space","NA","1459","1459","2525","NA","2","legacy","1024","2","48000","-16","experiment","4","even","NA","NA","103067","159483","91658","209610","209038","209575","211072","212060","NA","NA","159484","82496","211308","209073","NA","2200","NA","NA","174541","2200","212510","NA","162010","209035","209610","Stroop IC","15","81708","18","yes","1366","LOT"
"15","78.9473684211","yes","78.9473684211","25","4405","4405","#ffffff","no","practice","v;b;n;m","legacy","I have read and understood the information shown above","legacy","legacy","red","0","con","uniform","0","0","1","NA","0","0","0","0","0","15","15","15","15","15","0","0","5","0","15","15","0","0","NA","0","15","0","15","NA","0","15","15","12/06/16 15:22:21","The main experiment item","yes","v","W:\Sussex\Consciousness and control\Exp 1 - stroop suggestion and PCE\Methods\Palfi_script","no","mono","no","18","no","black","no","Ok","NA","no","Female","768","legacy","C:/Users/User/Dropbox/Sussex/Consciousness and control/Exp 1 - stroop suggestion and PCE/Methods/Palfi_script/laptop_size/subject-4.csv","legacy","Interactive Ising","3.0.2","0","None","None","space","NA","2000","2000","2525","NA","2","legacy","1024","2","48000","-16","experiment","4","even","NA","NA","103067","159483","91658","213214","212642","213179","215216","216206","NA","NA","159484","82496","211308","212677","NA","2200","NA","NA","215452","2200","216656","NA","162010","212639","213214","Stroop IC","15","83708","19","yes","1366","RED"
"30","80","yes","80","25","4233","4233","#ffffff","no","practice","v;b;n;m","legacy","I have read and understood the information shown above","legacy","legacy","blue","0","neutral","uniform","1","1","1","NA","0","0","0","0","0","16","16","16","16","16","0","0","5","0","16","16","0","0","NA","0","16","0","16","NA","0","16","16","12/06/16 15:22:21","The main experiment item","yes","b","W:\Sussex\Consciousness and control\Exp 1 - stroop suggestion and PCE\Methods\Palfi_script","no","mono","no","18","no","black","no","Ok","NA","no","Female","768","legacy","C:/Users/User/Dropbox/Sussex/Consciousness and control/Exp 1 - stroop suggestion and PCE/Methods/Palfi_script/laptop_size/subject-4.csv","legacy","Interactive Ising","3.0.2","0","b","b","space","NA","957","957","2525","NA","2","legacy","1024","2","48000","-16","experiment","4","even","NA","NA","103067","159483","91658","217388","216816","217353","218348","219336","NA","NA","159484","82496","218584","216851","NA","2200","NA","NA","215452","2200","219786","NA","162010","216813","217388","Stroop IC","16","84665","20","yes","1366","FLOWER"
"24","80.9523809524","yes","80.9523809524","25","4067","4067","#ffffff","no","practice","v;b;n;m","legacy","I have read and understood the information shown above","legacy","legacy","#ffef36","0","con","uniform","1","1","1","NA","0","0","0","0","0","17","17","17","17","17","0","0","5","0","17","17","0","0","NA","0","17","0","17","NA","0","17","17","12/06/16 15:22:21","The main experiment item","yes","m","W:\Sussex\Consciousness and control\Exp 1 - stroop suggestion and PCE\Methods\Palfi_script","no","mono","no","18","no","black","no","Ok","NA","no","Female","768","legacy","C:/Users/User/Dropbox/Sussex/Consciousness and control/Exp 1 - stroop suggestion and PCE/Methods/Palfi_script/laptop_size/subject-4.csv","legacy","Interactive Ising","3.0.2","0","m","m","space","NA","760","760","2525","NA","2","legacy","1024","2","48000","-16","experiment","4","even","NA","NA","103067","159483","91658","220547","219975","220512","221309","222300","NA","NA","159484","82496","221548","220010","NA","2200","NA","NA","215452","2200","222751","NA","162010","219972","220547","Stroop IC","17","85425","21","yes","1366","YELLOW"
"19","81.8181818182","yes","81.8181818182","25","3916","3916","#ffffff","no","practice","v;b;n;m","legacy","I have read and understood the information shown above","legacy","legacy","green","0","con","uniform","1","1","1","NA","0","0","0","0","0","18","18","18","18","18","0","0","5","0","18","18","0","0","NA","0","18","0","18","NA","0","18","18","12/06/16 15:22:21","The main experiment item","yes","n","W:\Sussex\Consciousness and control\Exp 1 - stroop suggestion and PCE\Methods\Palfi_script","no","mono","no","18","no","black","no","Ok","NA","no","Female","768","legacy","C:/Users/User/Dropbox/Sussex/Consciousness and control/Exp 1 - stroop suggestion and PCE/Methods/Palfi_script/laptop_size/subject-4.csv","legacy","Interactive Ising","3.0.2","0","n","n","space","NA","730","730","2525","NA","2","legacy","1024","2","48000","-16","experiment","4","even","NA","NA","103067","159483","91658","223504","222931","223469","224238","225228","NA","NA","159484","82496","224475","222966","NA","2200","NA","NA","215452","2200","225678","NA","162010","222929","223504","Stroop IC","18","86155","22","yes","1366","GREEN"
"18","82.6086956522","yes","82.6086956522","25","3776","3776","#ffffff","no","practice","v;b;n;m","legacy","I have read and understood the information shown above","legacy","legacy","blue","0","con","uniform","1","1","1","NA","0","0","0","0","0","19","19","19","19","19","0","0","5","0","19","19","0","0","NA","0","19","0","19","NA","0","19","19","12/06/16 15:22:21","The main experiment item","yes","b","W:\Sussex\Consciousness and control\Exp 1 - stroop suggestion and PCE\Methods\Palfi_script","no","mono","no","18","no","black","no","Ok","NA","no","Female","768","legacy","C:/Users/User/Dropbox/Sussex/Consciousness and control/Exp 1 - stroop suggestion and PCE/Methods/Palfi_script/laptop_size/subject-4.csv","legacy","Interactive Ising","3.0.2","0","b","b","space","NA","694","694","2525","NA","2","legacy","1024","2","48000","-16","experiment","4","even","NA","NA","103067","159483","91658","226404","225831","226369","227101","228092","NA","NA","159484","82496","227339","225867","NA","2200","NA","NA","215452","2200","228542","NA","162010","225829","226404","Stroop IC","19","86849","23","yes","1366","BLUE"
"17","83.3333333333","yes","83.3333333333","25","3648","3648","#ffffff","no","practice","v;b;n;m","legacy","I have read and understood the information shown above","legacy","legacy","blue","0","con","uniform","1","1","1","NA","0","0","0","0","0","20","20","20","20","20","0","0","5","0","20","20","0","0","NA","0","20","0","20","NA","0","20","20","12/06/16 15:22:21","The main experiment item","yes","b","W:\Sussex\Consciousness and control\Exp 1 - stroop suggestion and PCE\Methods\Palfi_script","no","mono","no","18","no","black","no","Ok","NA","no","Female","768","legacy","C:/Users/User/Dropbox/Sussex/Consciousness and control/Exp 1 - stroop suggestion and PCE/Methods/Palfi_script/laptop_size/subject-4.csv","legacy","Interactive Ising","3.0.2","0","b","b","space","NA","716","716","2525","NA","2","legacy","1024","2","48000","-16","experiment","4","even","NA","NA","103067","159483","91658","229242","228670","229207","229961","230952","NA","NA","159484","82496","230199","228705","NA","2200","NA","NA","215452","2200","231402","NA","162010","228667","229242","Stroop IC","20","87565","24","yes","1366","BLUE"
"8","80","yes","80","25","3532","3532","#ffffff","no","practice","v;b;n;m","legacy","I have read and understood the information shown above","legacy","legacy","green","0","inc","uniform","0","0","1","NA","0","0","0","0","0","21","21","21","21","21","0","0","5","0","21","21","0","0","NA","0","21","0","21","NA","0","21","21","12/06/16 15:22:21","The main experiment item","yes","n","W:\Sussex\Consciousness and control\Exp 1 - stroop suggestion and PCE\Methods\Palfi_script","no","mono","no","18","no","black","no","Ok","NA","no","Female","768","legacy","C:/Users/User/Dropbox/Sussex/Consciousness and control/Exp 1 - stroop suggestion and PCE/Methods/Palfi_script/laptop_size/subject-4.csv","legacy","Interactive Ising","3.0.2","0","m","m","space","NA","753","753","2525","NA","2","legacy","1024","2","48000","-16","experiment","4","even","NA","NA","103067","159483","91658","232111","231539","232076","232867","233857","NA","NA","159484","82496","230199","231574","NA","2200","NA","NA","233103","2200","234307","NA","162010","231536","232111","Stroop IC","20","88318","25","yes","1366","BLUE"
"14","80.7692307692","yes","80.7692307692","25","3435","3435","#ffffff","no","practice","v;b;n;m","legacy","I have read and understood the information shown above","legacy","legacy","red","0","con","uniform","1","1","1","NA","0","0","0","0","0","22","22","22","22","22","0","0","5","0","22","22","0","0","NA","0","22","0","22","NA","0","22","22","12/06/16 15:22:21","The main experiment item","yes","v","W:\Sussex\Consciousness and control\Exp 1 - stroop suggestion and PCE\Methods\Palfi_script","no","mono","no","18","no","black","no","Ok","NA","no","Female","768","legacy","C:/Users/User/Dropbox/Sussex/Consciousness and control/Exp 1 - stroop suggestion and PCE/Methods/Palfi_script/laptop_size/subject-4.csv","legacy","Interactive Ising","3.0.2","0","v","v","space","NA","1010","1010","2525","NA","2","legacy","1024","2","48000","-16","experiment","4","even","NA","NA","103067","159483","91658","235012","234439","234977","236025","237016","NA","NA","159484","82496","236264","234474","NA","2200","NA","NA","233103","2200","237466","NA","162010","234436","235012","Stroop IC","21","89328","26","yes","1366","RED"
"20","81.4814814815","yes","81.4814814815","25","3330","3330","#ffffff","no","practice","v;b;n;m","legacy","I have read and understood the information shown above","legacy","legacy","green","0","con","uniform","1","1","1","NA","0","0","0","0","0","23","23","23","23","23","0","0","5","0","23","23","0","0","NA","0","23","0","23","NA","0","23","23","12/06/16 15:22:21","The main experiment item","yes","n","W:\Sussex\Consciousness and control\Exp 1 - stroop suggestion and PCE\Methods\Palfi_script","no","mono","no","18","no","black","no","Ok","NA","no","Female","768","legacy","C:/Users/User/Dropbox/Sussex/Consciousness and control/Exp 1 - stroop suggestion and PCE/Methods/Palfi_script/laptop_size/subject-4.csv","legacy","Interactive Ising","3.0.2","0","n","n","space","NA","599","599","2525","NA","2","legacy","1024","2","48000","-16","experiment","4","even","NA","NA","103067","159483","91658","238172","237600","238137","238774","239763","NA","NA","159484","82496","239011","237635","NA","2200","NA","NA","233103","2200","240213","NA","162010","237598","238172","Stroop IC","22","89927","27","yes","1366","GREEN"
"36","82.1428571429","yes","82.1428571429","25","3248","3248","#ffffff","no","practice","v;b;n;m","legacy","I have read and understood the information shown above","legacy","legacy","#ffef36","0","neutral","uniform","1","1","1","NA","0","0","0","0","0","24","24","24","24","24","0","0","5","0","24","24","0","0","NA","0","24","0","24","NA","0","24","24","12/06/16 15:22:21","The main experiment item","yes","m","W:\Sussex\Consciousness and control\Exp 1 - stroop suggestion and PCE\Methods\Palfi_script","no","mono","no","18","no","black","no","Ok","NA","no","Female","768","legacy","C:/Users/User/Dropbox/Sussex/Consciousness and control/Exp 1 - stroop suggestion and PCE/Methods/Palfi_script/laptop_size/subject-4.csv","legacy","Interactive Ising","3.0.2","0","m","m","space","NA","1017","1017","2525","NA","2","legacy","1024","2","48000","-16","experiment","4","even","NA","NA","103067","159483","91658","240961","240389","240926","241981","242971","NA","NA","159484","82496","242219","240424","NA","2200","NA","NA","233103","2200","243421","NA","162010","240387","240961","Stroop IC","23","90944","28","yes","1366","KNIFE"
"12","82.7586206897","yes","82.7586206897","25","3158","3158","#ffffff","no","practice","v;b;n;m","legacy","I have read and understood the information shown above","legacy","legacy","#ffef36","0","inc","uniform","1","1","1","NA","0","0","0","0","0","25","25","25","25","25","0","0","5","0","25","25","0","0","NA","0","25","0","25","NA","0","25","25","12/06/16 15:22:21","The main experiment item","yes","m","W:\Sussex\Consciousness and control\Exp 1 - stroop suggestion and PCE\Methods\Palfi_script","no","mono","no","18","no","black","no","Ok","NA","no","Female","768","legacy","C:/Users/User/Dropbox/Sussex/Consciousness and control/Exp 1 - stroop suggestion and PCE/Methods/Palfi_script/laptop_size/subject-4.csv","legacy","Interactive Ising","3.0.2","0","m","m","space","NA","665","665","2525","NA","2","legacy","1024","2","48000","-16","experiment","4","even","NA","NA","103067","159483","91658","244133","243561","244098","244801","245790","NA","NA","159484","82496","245037","243596","NA","2200","NA","NA","233103","2200","246240","NA","162010","243559","244133","Stroop IC","24","91609","29","yes","1366","GREEN"
"33","80","yes","80","25","3089","3089","#ffffff","no","practice","v;b;n;m","legacy","I have read and understood the information shown above","legacy","legacy","green","0","neutral","uniform","0","0","1","NA","0","0","0","0","0","26","26","26","26","26","0","0","5","0","26","26","0","0","NA","0","26","0","26","NA","0","26","26","12/06/16 15:22:21","The main experiment item","yes","n","W:\Sussex\Consciousness and control\Exp 1 - stroop suggestion and PCE\Methods\Palfi_script","no","mono","no","18","no","black","no","Ok","NA","no","Female","768","legacy","C:/Users/User/Dropbox/Sussex/Consciousness and control/Exp 1 - stroop suggestion and PCE/Methods/Palfi_script/laptop_size/subject-4.csv","legacy","Interactive Ising","3.0.2","0","v","v","space","NA","1072","1072","2525","NA","2","legacy","1024","2","48000","-16","experiment","4","even","NA","NA","103067","159483","91658","246949","246377","246914","248024","249014","NA","NA","159484","82496","245037","246412","NA","2200","NA","NA","248260","2200","249464","NA","162010","246375","246949","Stroop IC","24","92681","30","yes","1366","FLOWER"
"22","80.6451612903","yes","80.6451612903","25","3015","3015","#ffffff","no","practice","v;b;n;m","legacy","I have read and understood the information shown above","legacy","legacy","#ffef36","0","con","uniform","1","1","1","NA","0","0","0","0","0","27","27","27","27","27","0","0","5","0","27","27","0","0","NA","0","27","0","27","NA","0","27","27","12/06/16 15:22:21","The main experiment item","yes","m","W:\Sussex\Consciousness and control\Exp 1 - stroop suggestion and PCE\Methods\Palfi_script","no","mono","no","18","no","black","no","Ok","NA","no","Female","768","legacy","C:/Users/User/Dropbox/Sussex/Consciousness and control/Exp 1 - stroop suggestion and PCE/Methods/Palfi_script/laptop_size/subject-4.csv","legacy","Interactive Ising","3.0.2","0","m","m","space","NA","794","794","2525","NA","2","legacy","1024","2","48000","-16","experiment","4","even","NA","NA","103067","159483","91658","250195","249623","250160","250992","251980","NA","NA","159484","82496","251228","249658","NA","2200","NA","NA","248260","2200","252430","NA","162010","249620","250195","Stroop IC","25","93475","31","yes","1366","YELLOW"
"9","78.125","yes","78.125","25","2969","2969","#ffffff","no","practice","v;b;n;m","legacy","I have read and understood the information shown above","legacy","legacy","green","0","inc","uniform","0","0","1","NA","0","0","0","0","0","28","28","28","28","28","0","0","5","0","28","28","0","0","NA","0","28","0","28","NA","0","28","28","12/06/16 15:22:21","The main experiment item","yes","n","W:\Sussex\Consciousness and control\Exp 1 - stroop suggestion and PCE\Methods\Palfi_script","no","mono","no","18","no","black","no","Ok","NA","no","Female","768","legacy","C:/Users/User/Dropbox/Sussex/Consciousness and control/Exp 1 - stroop suggestion and PCE/Methods/Palfi_script/laptop_size/subject-4.csv","legacy","Interactive Ising","3.0.2","0","v","v","space","NA","1539","1539","2525","NA","2","legacy","1024","2","48000","-16","experiment","4","even","NA","NA","103067","159483","91658","253179","252606","253144","254721","255709","NA","NA","159484","82496","251228","252642","NA","2200","NA","NA","254957","2200","256160","NA","162010","252604","253179","Stroop IC","25","95014","32","yes","1366","YELLOW"
"21","78.7878787879","yes","78.7878787879","25","2902","2902","#ffffff","no","practice","v;b;n;m","legacy","I have read and understood the information shown above","legacy","legacy","green","0","con","uniform","1","1","1","NA","0","0","0","0","0","29","29","29","29","29","0","0","5","0","29","29","0","0","NA","0","29","0","29","NA","0","29","29","12/06/16 15:22:21","The main experiment item","yes","n","W:\Sussex\Consciousness and control\Exp 1 - stroop suggestion and PCE\Methods\Palfi_script","no","mono","no","18","no","black","no","Ok","NA","no","Female","768","legacy","C:/Users/User/Dropbox/Sussex/Consciousness and control/Exp 1 - stroop suggestion and PCE/Methods/Palfi_script/laptop_size/subject-4.csv","legacy","Interactive Ising","3.0.2","0","n","n","space","NA","768","768","2525","NA","2","legacy","1024","2","48000","-16","experiment","4","even","NA","NA","103067","159483","91658","256919","256347","256884","257689","258679","NA","NA","159484","82496","257926","256382","NA","2200","NA","NA","254957","2200","259129","NA","162010","256345","256919","Stroop IC","26","95782","33","yes","1366","GREEN"
"1","76.4705882353","yes","76.4705882353","25","2868","2868","#ffffff","no","practice","v;b;n;m","legacy","I have read and understood the information shown above","legacy","legacy","red","0","inc","uniform","0","0","1","NA","0","0","0","0","0","30","30","30","30","30","0","0","5","0","30","30","0","0","NA","0","30","0","30","NA","0","30","30","12/06/16 15:22:21","The main experiment item","yes","v","W:\Sussex\Consciousness and control\Exp 1 - stroop suggestion and PCE\Methods\Palfi_script","no","mono","no","18","no","black","no","Ok","NA","no","Female","768","legacy","C:/Users/User/Dropbox/Sussex/Consciousness and control/Exp 1 - stroop suggestion and PCE/Methods/Palfi_script/laptop_size/subject-4.csv","legacy","Interactive Ising","3.0.2","0","m","m","space","NA","1757","1757","2525","NA","2","legacy","1024","2","48000","-16","experiment","4","even","NA","NA","103067","159483","91658","259878","259306","259843","261639","262629","NA","NA","159484","82496","257926","259341","NA","2200","NA","NA","261876","2200","263079","NA","162010","259304","259878","Stroop IC","26","97539","34","yes","1366","BLUE"
"3","77.1428571429","yes","77.1428571429","25","2813","2813","#ffffff","no","practice","v;b;n;m","legacy","I have read and understood the information shown above","legacy","legacy","red","0","inc","uniform","1","1","1","NA","0","0","0","0","0","31","31","31","31","31","0","0","5","0","31","31","0","0","NA","0","31","0","31","NA","0","31","31","12/06/16 15:22:21","The main experiment item","yes","v","W:\Sussex\Consciousness and control\Exp 1 - stroop suggestion and PCE\Methods\Palfi_script","no","mono","no","18","no","black","no","Ok","NA","no","Female","768","legacy","C:/Users/User/Dropbox/Sussex/Consciousness and control/Exp 1 - stroop suggestion and PCE/Methods/Palfi_script/laptop_size/subject-4.csv","legacy","Interactive Ising","3.0.2","0","v","v","space","NA","928","928","2525","NA","2","legacy","1024","2","48000","-16","experiment","4","even","NA","NA","103067","159483","91658","263785","263213","263750","264716","265704","NA","NA","159484","82496","264952","263248","NA","2200","NA","NA","261876","2200","266154","NA","162010","263211","263785","Stroop IC","27","98467","35","yes","1366","YELLOW"
"29","77.7777777778","yes","77.7777777778","25","2784","2784","#ffffff","no","practice","v;b;n;m","legacy","I have read and understood the information shown above","legacy","legacy","blue","0","neutral","uniform","1","1","1","NA","0","0","0","0","0","32","32","32","32","32","0","0","5","0","32","32","0","0","NA","0","32","0","32","NA","0","32","32","12/06/16 15:22:21","The main experiment item","yes","b","W:\Sussex\Consciousness and control\Exp 1 - stroop suggestion and PCE\Methods\Palfi_script","no","mono","no","18","no","black","no","Ok","NA","no","Female","768","legacy","C:/Users/User/Dropbox/Sussex/Consciousness and control/Exp 1 - stroop suggestion and PCE/Methods/Palfi_script/laptop_size/subject-4.csv","legacy","Interactive Ising","3.0.2","0","b","b","space","NA","1769","1769","2525","NA","2","legacy","1024","2","48000","-16","experiment","4","even","NA","NA","103067","159483","91658","266856","266284","266821","268627","269616","NA","NA","159484","82496","268864","266319","NA","2200","NA","NA","261876","2200","270067","NA","162010","266282","266856","Stroop IC","28","100236","36","yes","1366","KNIFE"
"10","78.3783783784","yes","78.3783783784","25","2732","2732","#ffffff","no","practice","v;b;n;m","legacy","I have read and understood the information shown above","legacy","legacy","#ffef36","0","inc","uniform","1","1","1","NA","0","0","0","0","0","33","33","33","33","33","0","0","5","0","33","33","0","0","NA","0","33","0","33","NA","0","33","33","12/06/16 15:22:21","The main experiment item","yes","m","W:\Sussex\Consciousness and control\Exp 1 - stroop suggestion and PCE\Methods\Palfi_script","no","mono","no","18","no","black","no","Ok","NA","no","Female","768","legacy","C:/Users/User/Dropbox/Sussex/Consciousness and control/Exp 1 - stroop suggestion and PCE/Methods/Palfi_script/laptop_size/subject-4.csv","legacy","Interactive Ising","3.0.2","0","m","m","space","NA","868","868","2525","NA","2","legacy","1024","2","48000","-16","experiment","4","even","NA","NA","103067","159483","91658","270812","270240","270777","271683","272671","NA","NA","159484","82496","271919","270275","NA","2200","NA","NA","261876","2200","273122","NA","162010","270237","270812","Stroop IC","29","101104","37","yes","1366","RED"
"13","76.3157894737","yes","76.3157894737","25","2689","2689","#ffffff","no","practice","v;b;n;m","legacy","I have read and understood the information shown above","legacy","legacy","red","0","con","uniform","0","0","1","NA","0","0","0","0","0","34","34","34","34","34","0","0","5","0","34","34","0","0","NA","0","34","0","34","NA","0","34","34","12/06/16 15:22:21","The main experiment item","yes","v","W:\Sussex\Consciousness and control\Exp 1 - stroop suggestion and PCE\Methods\Palfi_script","no","mono","no","18","no","black","no","Ok","NA","no","Female","768","legacy","C:/Users/User/Dropbox/Sussex/Consciousness and control/Exp 1 - stroop suggestion and PCE/Methods/Palfi_script/laptop_size/subject-4.csv","legacy","Interactive Ising","3.0.2","0","b","b","space","NA","1087","1087","2525","NA","2","legacy","1024","2","48000","-16","experiment","4","even","NA","NA","103067","159483","91658","273870","273298","273835","274960","275948","NA","NA","159484","82496","271919","273333","NA","2200","NA","NA","275196","2200","276398","NA","162010","273296","273870","Stroop IC","29","102191","38","yes","1366","RED"
"32","74.358974359","yes","74.358974359","25","2642","2642","#ffffff","no","practice","v;b;n;m","legacy","I have read and understood the information shown above","legacy","legacy","green","0","neutral","uniform","0","0","1","NA","0","0","0","0","0","35","35","35","35","35","0","0","5","0","35","35","0","0","NA","0","35","0","35","NA","0","35","35","12/06/16 15:22:21","The main experiment item","yes","n","W:\Sussex\Consciousness and control\Exp 1 - stroop suggestion and PCE\Methods\Palfi_script","no","mono","no","18","no","black","no","Ok","NA","no","Female","768","legacy","C:/Users/User/Dropbox/Sussex/Consciousness and control/Exp 1 - stroop suggestion and PCE/Methods/Palfi_script/laptop_size/subject-4.csv","legacy","Interactive Ising","3.0.2","0","b","b","space","NA","868","868","2525","NA","2","legacy","1024","2","48000","-16","experiment","4","even","NA","NA","103067","159483","91658","277205","276633","277170","278075","279064","NA","NA","159484","82496","271919","276668","NA","2200","NA","NA","278312","2200","279514","NA","162010","276631","277205","Stroop IC","29","103059","39","yes","1366","SHIP"
"60","73.1707317073","yes","73.1707317073","25","2653","2653","#ffffff","no","I","v;b;n;m","legacy","I have read and understood the information shown above","legacy","legacy","green","0","inc","uniform","0","0","1","NA","0","0","0","0","0","36","36","36","36","36","0","0","5","0","36","36","0","0","NA","0","36","0","36","NA","0","36","36","12/06/16 15:22:21","The main experiment item","yes","n","W:\Sussex\Consciousness and control\Exp 1 - stroop suggestion and PCE\Methods\Palfi_script","no","mono","no","18","no","black","no","Ok","NA","no","Female","768","legacy","C:/Users/User/Dropbox/Sussex/Consciousness and control/Exp 1 - stroop suggestion and PCE/Methods/Palfi_script/laptop_size/subject-4.csv","legacy","Interactive Ising","3.0.2","0","m","m","space","NA","806","806","4932","NA","2","legacy","1024","2","48000","-16","experiment","4","even","NA","284495","103067","159483","91658","285188","284615","285153","285997","286985","279561","NA","279561","82496","271919","284651","NA","2200","NA","NA","286233","2200","287435","NA","162010","284613","285188","Stroop IC","30","108797","41","yes","1366","BLUE"
"100","71.4285714286","yes","71.4285714286","25","2617","2617","#ffffff","no","I","v;b;n;m","legacy","I have read and understood the information shown above","legacy","legacy","blue","0","con","uniform","0","0","1","NA","0","0","0","0","0","37","37","37","37","37","0","0","5","0","37","37","0","0","NA","0","37","0","37","NA","0","37","37","12/06/16 15:22:21","The main experiment item","yes","b","W:\Sussex\Consciousness and control\Exp 1 - stroop suggestion and PCE\Methods\Palfi_script","no","mono","no","18","no","black","no","Ok","NA","no","Female","768","legacy","C:/Users/User/Dropbox/Sussex/Consciousness and control/Exp 1 - stroop suggestion and PCE/Methods/Palfi_script/laptop_size/subject-4.csv","legacy","Interactive Ising","3.0.2","0","v","v","space","NA","1133","1133","4932","NA","2","legacy","1024","2","48000","-16","experiment","4","even","NA","284495","103067","159483","91658","288183","287611","288148","289319","290309","279561","NA","279561","82496","271919","287646","NA","2200","NA","NA","289557","2200","290759","NA","162010","287609","288183","Stroop IC","30","109930","42","yes","1366","BLUE"
"9","69.7674418605","yes","69.7674418605","25","2581","2581","#ffffff","no","I","v;b;n;m","legacy","I have read and understood the information shown above","legacy","legacy","red","0","inc","uniform","0","0","1","NA","0","0","0","0","0","38","38","38","38","38","0","0","5","0","38","38","0","0","NA","0","38","0","38","NA","0","38","38","12/06/16 15:22:21","The main experiment item","yes","v","W:\Sussex\Consciousness and control\Exp 1 - stroop suggestion and PCE\Methods\Palfi_script","no","mono","no","18","no","black","no","Ok","NA","no","Female","768","legacy","C:/Users/User/Dropbox/Sussex/Consciousness and control/Exp 1 - stroop suggestion and PCE/Methods/Palfi_script/laptop_size/subject-4.csv","legacy","Interactive Ising","3.0.2","0","b","b","space","NA","1063","1063","4932","NA","2","legacy","1024","2","48000","-16","experiment","4","even","NA","284495","103067","159483","91658","291512","290940","291477","292578","293566","279561","NA","279561","82496","271919","290975","NA","2200","NA","NA","292814","2200","294017","NA","162010","290937","291512","Stroop IC","30","110993","43","yes","1366","GREEN"
"23","70.4545454545","yes","70.4545454545","25","2535","2535","#ffffff","no","I","v;b;n;m","legacy","I have read and understood the information shown above","legacy","legacy","red","0","inc","uniform","1","1","1","NA","0","0","0","0","0","39","39","39","39","39","0","0","5","0","39","39","0","0","NA","0","39","0","39","NA","0","39","39","12/06/16 15:22:21","The main experiment item","yes","v","W:\Sussex\Consciousness and control\Exp 1 - stroop suggestion and PCE\Methods\Palfi_script","no","mono","no","18","no","black","no","Ok","NA","no","Female","768","legacy","C:/Users/User/Dropbox/Sussex/Consciousness and control/Exp 1 - stroop suggestion and PCE/Methods/Palfi_script/laptop_size/subject-4.csv","legacy","Interactive Ising","3.0.2","0","v","v","space","NA","554","554","4932","NA","2","legacy","1024","2","48000","-16","experiment","4","even","NA","284495","103067","159483","91658","294739","294167","294704","295296","296287","279561","NA","279561","82496","295533","294202","NA","2200","NA","NA","292814","2200","296737","NA","162010","294165","294739","Stroop IC","31","111547","44","yes","1366","YELLOW"
"106","68.8888888889","yes","68.8888888889","25","2500","2500","#ffffff","no","I","v;b;n;m","legacy","I have read and understood the information shown above","legacy","legacy","#ffef36","0","con","uniform","0","0","1","NA","0","0","0","0","0","40","40","40","40","40","0","0","5","0","40","40","0","0","NA","0","40","0","40","NA","0","40","40","12/06/16 15:22:21","The main experiment item","yes","m","W:\Sussex\Consciousness and control\Exp 1 - stroop suggestion and PCE\Methods\Palfi_script","no","mono","no","18","no","black","no","Ok","NA","no","Female","768","legacy","C:/Users/User/Dropbox/Sussex/Consciousness and control/Exp 1 - stroop suggestion and PCE/Methods/Palfi_script/laptop_size/subject-4.csv","legacy","Interactive Ising","3.0.2","0","n","n","space","NA","968","968","4932","NA","2","legacy","1024","2","48000","-16","experiment","4","even","NA","284495","103067","159483","91658","297460","296888","297425","298431","299419","279561","NA","279561","82496","295533","296923","NA","2200","NA","NA","298667","2200","299869","NA","162010","296885","297460","Stroop IC","31","112515","45","yes","1366","YELLOW"
"94","67.3913043478","yes","67.3913043478","25","2463","2463","#ffffff","no","I","v;b;n;m","legacy","I have read and understood the information shown above","legacy","legacy","#ffef36","0","inc","uniform","0","0","1","NA","0","0","0","0","0","41","41","41","41","41","0","0","5","0","41","41","0","0","NA","0","41","0","41","NA","0","41","41","12/06/16 15:22:21","The main experiment item","yes","m","W:\Sussex\Consciousness and control\Exp 1 - stroop suggestion and PCE\Methods\Palfi_script","no","mono","no","18","no","black","no","Ok","NA","no","Female","768","legacy","C:/Users/User/Dropbox/Sussex/Consciousness and control/Exp 1 - stroop suggestion and PCE/Methods/Palfi_script/laptop_size/subject-4.csv","legacy","Interactive Ising","3.0.2","0","b","b","space","NA","826","826","4932","NA","2","legacy","1024","2","48000","-16","experiment","4","even","NA","284495","103067","159483","91658","300635","300063","300600","301464","302453","279561","NA","279561","82496","295533","300098","NA","2200","NA","NA","301700","2200","302903","NA","162010","300060","300635","Stroop IC","31","113341","46","yes","1366","GREEN"
"120","65.9574468085","yes","65.9574468085","25","2428","2428","#ffffff","no","I","v;b;n;m","legacy","I have read and understood the information shown above","legacy","legacy","#ffef36","0","neutral","uniform","0","0","1","NA","0","0","0","0","0","42","42","42","42","42","0","0","5","0","42","42","0","0","NA","0","42","0","42","NA","0","42","42","12/06/16 15:22:21","The main experiment item","yes","m","W:\Sussex\Consciousness and control\Exp 1 - stroop suggestion and PCE\Methods\Palfi_script","no","mono","no","18","no","black","no","Ok","NA","no","Female","768","legacy","C:/Users/User/Dropbox/Sussex/Consciousness and control/Exp 1 - stroop suggestion and PCE/Methods/Palfi_script/laptop_size/subject-4.csv","legacy","Interactive Ising","3.0.2","0","b","b","space","NA","819","819","4932","NA","2","legacy","1024","2","48000","-16","experiment","4","even","NA","284495","103067","159483","91658","303651","303079","303616","304473","305461","279561","NA","279561","82496","295533","303114","NA","2200","NA","NA","304709","2200","305911","NA","162010","303077","303651","Stroop IC","31","114160","47","yes","1366","KNIFE"
"39","64.5833333333","yes","64.5833333333","25","2404","2404","#ffffff","no","I","v;b;n;m","legacy","I have read and understood the information shown above","legacy","legacy","blue","0","inc","uniform","0","0","1","NA","0","0","0","0","0","43","43","43","43","43","0","0","5","0","43","43","0","0","NA","0","43","0","43","NA","0","43","43","12/06/16 15:22:21","The main experiment item","yes","b","W:\Sussex\Consciousness and control\Exp 1 - stroop suggestion and PCE\Methods\Palfi_script","no","mono","no","18","no","black","no","Ok","NA","no","Female","768","legacy","C:/Users/User/Dropbox/Sussex/Consciousness and control/Exp 1 - stroop suggestion and PCE/Methods/Palfi_script/laptop_size/subject-4.csv","legacy","Interactive Ising","3.0.2","0","m","m","space","NA","1258","1258","4932","NA","2","legacy","1024","2","48000","-16","experiment","4","even","NA","284495","103067","159483","91658","306620","306048","306585","307880","308869","279561","NA","279561","82496","295533","306083","NA","2200","NA","NA","308117","2200","309319","NA","162010","306046","306620","Stroop IC","31","115418","48","yes","1366","GREEN"
"113","63.2653061224","yes","63.2653061224","25","2377","2377","#ffffff","no","I","v;b;n;m","legacy","I have read and understood the information shown above","legacy","legacy","blue","0","neutral","uniform","0","0","1","NA","0","0","0","0","0","44","44","44","44","44","0","0","5","0","44","44","0","0","NA","0","44","0","44","NA","0","44","44","12/06/16 15:22:21","The main experiment item","yes","b","W:\Sussex\Consciousness and control\Exp 1 - stroop suggestion and PCE\Methods\Palfi_script","no","mono","no","18","no","black","no","Ok","NA","no","Female","768","legacy","C:/Users/User/Dropbox/Sussex/Consciousness and control/Exp 1 - stroop suggestion and PCE/Methods/Palfi_script/laptop_size/subject-4.csv","legacy","Interactive Ising","3.0.2","0","m","m","space","NA","1061","1061","4932","NA","2","legacy","1024","2","48000","-16","experiment","4","even","NA","284495","103067","159483","91658","310037","309465","310002","311101","312089","279561","NA","279561","82496","295533","309500","NA","2200","NA","NA","311337","2200","312539","NA","162010","309462","310037","Stroop IC","31","116479","49","yes","1366","KNIFE"
"92","64","yes","64","25","2354","2354","#ffffff","no","I","v;b;n;m","legacy","I have read and understood the information shown above","legacy","legacy","#ffef36","0","inc","uniform","1","1","1","NA","0","0","0","0","0","45","45","45","45","45","0","0","5","0","45","45","0","0","NA","0","45","0","45","NA","0","45","45","12/06/16 15:22:21","The main experiment item","yes","m","W:\Sussex\Consciousness and control\Exp 1 - stroop suggestion and PCE\Methods\Palfi_script","no","mono","no","18","no","black","no","Ok","NA","no","Female","768","legacy","C:/Users/User/Dropbox/Sussex/Consciousness and control/Exp 1 - stroop suggestion and PCE/Methods/Palfi_script/laptop_size/subject-4.csv","legacy","Interactive Ising","3.0.2","0","m","m","space","NA","1255","1255","4932","NA","2","legacy","1024","2","48000","-16","experiment","4","even","NA","284495","103067","159483","91658","313298","312726","313263","314556","315544","279561","NA","279561","82496","314792","312761","NA","2200","NA","NA","311337","2200","315994","NA","162010","312723","313298","Stroop IC","32","117734","50","yes","1366","GREEN"
"98","64.7058823529","yes","64.7058823529","25","2329","2329","#ffffff","no","I","v;b;n;m","legacy","I have read and understood the information shown above","legacy","legacy","red","0","con","uniform","1","1","1","NA","0","0","0","0","0","46","46","46","46","46","0","0","5","0","46","46","0","0","NA","0","46","0","46","NA","0","46","46","12/06/16 15:22:21","The main experiment item","yes","v","W:\Sussex\Consciousness and control\Exp 1 - stroop suggestion and PCE\Methods\Palfi_script","no","mono","no","18","no","black","no","Ok","NA","no","Female","768","legacy","C:/Users/User/Dropbox/Sussex/Consciousness and control/Exp 1 - stroop suggestion and PCE/Methods/Palfi_script/laptop_size/subject-4.csv","legacy","Interactive Ising","3.0.2","0","v","v","space","NA","1069","1069","4932","NA","2","legacy","1024","2","48000","-16","experiment","4","even","NA","284495","103067","159483","91658","316730","316157","316695","317802","318793","279561","NA","279561","82496","318039","316193","NA","2200","NA","NA","311337","2200","319243","NA","162010","316155","316730","Stroop IC","33","118803","51","yes","1366","RED"
"71","63.4615384615","yes","63.4615384615","25","2323","2323","#ffffff","no","I","v;b;n;m","legacy","I have read and understood the information shown above","legacy","legacy","green","0","inc","uniform","0","0","1","NA","0","0","0","0","0","47","47","47","47","47","0","0","5","0","47","47","0","0","NA","0","47","0","47","NA","0","47","47","12/06/16 15:22:21","The main experiment item","yes","n","W:\Sussex\Consciousness and control\Exp 1 - stroop suggestion and PCE\Methods\Palfi_script","no","mono","no","18","no","black","no","Ok","NA","no","Female","768","legacy","C:/Users/User/Dropbox/Sussex/Consciousness and control/Exp 1 - stroop suggestion and PCE/Methods/Palfi_script/laptop_size/subject-4.csv","legacy","Interactive Ising","3.0.2","0","None","None","space","NA","2000","2000","4932","NA","2","legacy","1024","2","48000","-16","experiment","4","even","NA","284495","103067","159483","91658","319994","319422","319959","321997","322985","279561","NA","279561","82496","318039","319457","NA","2200","NA","NA","322233","2200","323435","NA","162010","319420","319994","Stroop IC","33","120803","52","yes","1366","YELLOW"
"114","62.2641509434","yes","62.2641509434","25","2308","2308","#ffffff","no","I","v;b;n;m","legacy","I have read and understood the information shown above","legacy","legacy","blue","0","neutral","uniform","0","0","1","NA","0","0","0","0","0","48","48","48","48","48","0","0","5","0","48","48","0","0","NA","0","48","0","48","NA","0","48","48","12/06/16 15:22:21","The main experiment item","yes","b","W:\Sussex\Consciousness and control\Exp 1 - stroop suggestion and PCE\Methods\Palfi_script","no","mono","no","18","no","black","no","Ok","NA","no","Female","768","legacy","C:/Users/User/Dropbox/Sussex/Consciousness and control/Exp 1 - stroop suggestion and PCE/Methods/Palfi_script/laptop_size/subject-4.csv","legacy","Interactive Ising","3.0.2","0","n","n","space","NA","1542","1542","4932","NA","2","legacy","1024","2","48000","-16","experiment","4","even","NA","284495","103067","159483","91658","324138","323566","324103","325683","326673","279561","NA","279561","82496","318039","323601","NA","2200","NA","NA","325920","2200","327123","NA","162010","323563","324138","Stroop IC","33","122345","53","yes","1366","FLOWER"
"19","61.1111111111","yes","61.1111111111","25","2302","2302","#ffffff","no","I","v;b;n;m","legacy","I have read and understood the information shown above","legacy","legacy","red","0","inc","uniform","0","0","1","NA","0","0","0","0","0","49","49","49","49","49","0","0","5","0","49","49","0","0","NA","0","49","0","49","NA","0","49","49","12/06/16 15:22:21","The main experiment item","yes","v","W:\Sussex\Consciousness and control\Exp 1 - stroop suggestion and PCE\Methods\Palfi_script","no","mono","no","18","no","black","no","Ok","NA","no","Female","768","legacy","C:/Users/User/Dropbox/Sussex/Consciousness and control/Exp 1 - stroop suggestion and PCE/Methods/Palfi_script/laptop_size/subject-4.csv","legacy","Interactive Ising","3.0.2","0","None","None","space","NA","2000","2000","4932","NA","2","legacy","1024","2","48000","-16","experiment","4","even","NA","284495","103067","159483","91658","327858","327285","327823","329861","330853","279561","NA","279561","82496","318039","327321","NA","2200","NA","NA","330099","2200","331303","NA","162010","327283","327858","Stroop IC","33","124345","54","yes","1366","YELLOW"
"93","61.8181818182","yes","61.8181818182","25","2286","2286","#ffffff","no","I","v;b;n;m","legacy","I have read and understood the information shown above","legacy","legacy","#ffef36","0","inc","uniform","1","1","1","NA","0","0","0","0","0","50","50","50","50","50","0","0","5","0","50","50","0","0","NA","0","50","0","50","NA","0","50","50","12/06/16 15:22:21","The main experiment item","yes","m","W:\Sussex\Consciousness and control\Exp 1 - stroop suggestion and PCE\Methods\Palfi_script","no","mono","no","18","no","black","no","Ok","NA","no","Female","768","legacy","C:/Users/User/Dropbox/Sussex/Consciousness and control/Exp 1 - stroop suggestion and PCE/Methods/Palfi_script/laptop_size/subject-4.csv","legacy","Interactive Ising","3.0.2","0","m","m","space","NA","1386","1386","4932","NA","2","legacy","1024","2","48000","-16","experiment","4","even","NA","284495","103067","159483","91658","332086","331514","332051","333475","334464","279561","NA","279561","82496","333711","331549","NA","2200","NA","NA","330099","2200","334914","NA","162010","331512","332086","Stroop IC","34","125731","55","yes","1366","GREEN"
"109","62.5","yes","62.5","25","2269","2269","#ffffff","no","I","v;b;n;m","legacy","I have read and understood the information shown above","legacy","legacy","red","0","neutral","uniform","1","1","1","NA","0","0","0","0","0","51","51","51","51","51","0","0","5","0","51","51","0","0","NA","0","51","0","51","NA","0","51","51","12/06/16 15:22:21","The main experiment item","yes","v","W:\Sussex\Consciousness and control\Exp 1 - stroop suggestion and PCE\Methods\Palfi_script","no","mono","no","18","no","black","no","Ok","NA","no","Female","768","legacy","C:/Users/User/Dropbox/Sussex/Consciousness and control/Exp 1 - stroop suggestion and PCE/Methods/Palfi_script/laptop_size/subject-4.csv","legacy","Interactive Ising","3.0.2","0","v","v","space","NA","1340","1340","4932","NA","2","legacy","1024","2","48000","-16","experiment","4","even","NA","284495","103067","159483","91658","335636","335064","335601","336979","337967","279561","NA","279561","82496","337215","335099","NA","2200","NA","NA","330099","2200","338417","NA","162010","335062","335636","Stroop IC","35","127071","56","yes","1366","SHIP"
"96","61.4035087719","yes","61.4035087719","25","2257","2257","#ffffff","no","I","v;b;n;m","legacy","I have read and understood the information shown above","legacy","legacy","#ffef36","0","inc","uniform","0","0","1","NA","0","0","0","0","0","52","52","52","52","52","0","0","5","0","52","52","0","0","NA","0","52","0","52","NA","0","52","52","12/06/16 15:22:21","The main experiment item","yes","m","W:\Sussex\Consciousness and control\Exp 1 - stroop suggestion and PCE\Methods\Palfi_script","no","mono","no","18","no","black","no","Ok","NA","no","Female","768","legacy","C:/Users/User/Dropbox/Sussex/Consciousness and control/Exp 1 - stroop suggestion and PCE/Methods/Palfi_script/laptop_size/subject-4.csv","legacy","Interactive Ising","3.0.2","0","v","v","space","NA","1581","1581","4932","NA","2","legacy","1024","2","48000","-16","experiment","4","even","NA","284495","103067","159483","91658","339115","338543","339080","340699","341687","279561","NA","279561","82496","337215","338578","NA","2200","NA","NA","340935","2200","342137","NA","162010","338541","339115","Stroop IC","35","128652","57","yes","1366","GREEN"
"112","62.0689655172","yes","62.0689655172","25","2251","2251","#ffffff","no","I","v;b;n;m","legacy","I have read and understood the information shown above","legacy","legacy","blue","0","neutral","uniform","1","1","1","NA","0","0","0","0","0","53","53","53","53","53","0","0","5","0","53","53","0","0","NA","0","53","0","53","NA","0","53","53","12/06/16 15:22:21","The main experiment item","yes","b","W:\Sussex\Consciousness and control\Exp 1 - stroop suggestion and PCE\Methods\Palfi_script","no","mono","no","18","no","black","no","Ok","NA","no","Female","768","legacy","C:/Users/User/Dropbox/Sussex/Consciousness and control/Exp 1 - stroop suggestion and PCE/Methods/Palfi_script/laptop_size/subject-4.csv","legacy","Interactive Ising","3.0.2","0","b","b","space","NA","1911","1911","4932","NA","2","legacy","1024","2","48000","-16","experiment","4","even","NA","284495","103067","159483","91658","342865","342293","342830","344778","345768","279561","NA","279561","82496","345016","342328","NA","2200","NA","NA","340935","2200","346218","NA","162010","342291","342865","Stroop IC","36","130563","58","yes","1366","LOT"
"102","62.7118644068","yes","62.7118644068","25","2223","2223","#ffffff","no","I","v;b;n;m","legacy","I have read and understood the information shown above","legacy","legacy","blue","0","con","uniform","1","1","1","NA","0","0","0","0","0","54","54","54","54","54","0","0","5","0","54","54","0","0","NA","0","54","0","54","NA","0","54","54","12/06/16 15:22:21","The main experiment item","yes","b","W:\Sussex\Consciousness and control\Exp 1 - stroop suggestion and PCE\Methods\Palfi_script","no","mono","no","18","no","black","no","Ok","NA","no","Female","768","legacy","C:/Users/User/Dropbox/Sussex/Consciousness and control/Exp 1 - stroop suggestion and PCE/Methods/Palfi_script/laptop_size/subject-4.csv","legacy","Interactive Ising","3.0.2","0","b","b","space","NA","608","608","4932","NA","2","legacy","1024","2","48000","-16","experiment","4","even","NA","284495","103067","159483","91658","346968","346396","346933","347579","348569","279561","NA","279561","82496","347815","346431","NA","2200","NA","NA","340935","2200","349019","NA","162010","346394","346968","Stroop IC","37","131171","59","yes","1366","BLUE"
"44","63.3333333333","yes","63.3333333333","25","2196","2196","#ffffff","no","I","v;b;n;m","legacy","I have read and understood the information shown above","legacy","legacy","blue","0","inc","uniform","1","1","1","NA","0","0","0","0","0","55","55","55","55","55","0","0","5","0","55","55","0","0","NA","0","55","0","55","NA","0","55","55","12/06/16 15:22:21","The main experiment item","yes","b","W:\Sussex\Consciousness and control\Exp 1 - stroop suggestion and PCE\Methods\Palfi_script","no","mono","no","18","no","black","no","Ok","NA","no","Female","768","legacy","C:/Users/User/Dropbox/Sussex/Consciousness and control/Exp 1 - stroop suggestion and PCE/Methods/Palfi_script/laptop_size/subject-4.csv","legacy","Interactive Ising","3.0.2","0","b","b","space","NA","631","631","4932","NA","2","legacy","1024","2","48000","-16","experiment","4","even","NA","284495","103067","159483","91658","349726","349154","349691","350360","351349","279561","NA","279561","82496","350597","349189","NA","2200","NA","NA","340935","2200","351799","NA","162010","349152","349726","Stroop IC","38","131802","60","yes","1366","YELLOW"
"36","63.9344262295","yes","63.9344262295","25","2173","2173","#ffffff","no","I","v;b;n;m","legacy","I have read and understood the information shown above","legacy","legacy","blue","0","inc","uniform","1","1","1","NA","0","0","0","0","0","56","56","56","56","56","0","0","5","0","56","56","0","0","NA","0","56","0","56","NA","0","56","56","12/06/16 15:22:21","The main experiment item","yes","b","W:\Sussex\Consciousness and control\Exp 1 - stroop suggestion and PCE\Methods\Palfi_script","no","mono","no","18","no","black","no","Ok","NA","no","Female","768","legacy","C:/Users/User/Dropbox/Sussex/Consciousness and control/Exp 1 - stroop suggestion and PCE/Methods/Palfi_script/laptop_size/subject-4.csv","legacy","Interactive Ising","3.0.2","0","b","b","space","NA","792","792","4932","NA","2","legacy","1024","2","48000","-16","experiment","4","even","NA","284495","103067","159483","91658","352539","351967","352504","353334","354324","279561","NA","279561","82496","353572","352002","NA","2200","NA","NA","340935","2200","354774","NA","162010","351964","352539","Stroop IC","39","132594","61","yes","1366","GREEN"
"26","64.5161290323","yes","64.5161290323","25","2149","2149","#ffffff","no","I","v;b;n;m","legacy","I have read and understood the information shown above","legacy","legacy","blue","0","inc","uniform","1","1","1","NA","0","0","0","0","0","57","57","57","57","57","0","0","5","0","57","57","0","0","NA","0","57","0","57","NA","0","57","57","12/06/16 15:22:21","The main experiment item","yes","b","W:\Sussex\Consciousness and control\Exp 1 - stroop suggestion and PCE\Methods\Palfi_script","no","mono","no","18","no","black","no","Ok","NA","no","Female","768","legacy","C:/Users/User/Dropbox/Sussex/Consciousness and control/Exp 1 - stroop suggestion and PCE/Methods/Palfi_script/laptop_size/subject-4.csv","legacy","Interactive Ising","3.0.2","0","b","b","space","NA","644","644","4932","NA","2","legacy","1024","2","48000","-16","experiment","4","even","NA","284495","103067","159483","91658","355502","354930","355467","356149","357138","279561","NA","279561","82496","356386","354965","NA","2200","NA","NA","340935","2200","357588","NA","162010","354927","355502","Stroop IC","40","133238","62","yes","1366","RED"
"61","65.0793650794","yes","65.0793650794","25","2129","2129","#ffffff","no","I","v;b;n;m","legacy","I have read and understood the information shown above","legacy","legacy","green","0","inc","uniform","1","1","1","NA","0","0","0","0","0","58","58","58","58","58","0","0","5","0","58","58","0","0","NA","0","58","0","58","NA","0","58","58","12/06/16 15:22:21","The main experiment item","yes","n","W:\Sussex\Consciousness and control\Exp 1 - stroop suggestion and PCE\Methods\Palfi_script","no","mono","no","18","no","black","no","Ok","NA","no","Female","768","legacy","C:/Users/User/Dropbox/Sussex/Consciousness and control/Exp 1 - stroop suggestion and PCE/Methods/Palfi_script/laptop_size/subject-4.csv","legacy","Interactive Ising","3.0.2","0","n","n","space","NA","889","889","4932","NA","2","legacy","1024","2","48000","-16","experiment","4","even","NA","284495","103067","159483","91658","358313","357740","358278","359204","360193","279561","NA","279561","82496","359441","357776","NA","2200","NA","NA","340935","2200","360643","NA","162010","357738","358313","Stroop IC","41","134127","63","yes","1366","BLUE"
"79","65.625","yes","65.625","25","2110","2110","#ffffff","no","I","v;b;n;m","legacy","I have read and understood the information shown above","legacy","legacy","#ffef36","0","inc","uniform","1","1","1","NA","0","0","0","0","0","59","59","59","59","59","0","0","5","0","59","59","0","0","NA","0","59","0","59","NA","0","59","59","12/06/16 15:22:21","The main experiment item","yes","m","W:\Sussex\Consciousness and control\Exp 1 - stroop suggestion and PCE\Methods\Palfi_script","no","mono","no","18","no","black","no","Ok","NA","no","Female","768","legacy","C:/Users/User/Dropbox/Sussex/Consciousness and control/Exp 1 - stroop suggestion and PCE/Methods/Palfi_script/laptop_size/subject-4.csv","legacy","Interactive Ising","3.0.2","0","m","m","space","NA","973","973","4932","NA","2","legacy","1024","2","48000","-16","experiment","4","even","NA","284495","103067","159483","91658","361359","360786","361324","362335","363323","279561","NA","279561","82496","362571","360822","NA","2200","NA","NA","340935","2200","363773","NA","162010","360784","361359","Stroop IC","42","135100","64","yes","1366","RED"
"31","66.1538461538","yes","66.1538461538","25","2105","2105","#ffffff","no","I","v;b;n;m","legacy","I have read and understood the information shown above","legacy","legacy","blue","0","inc","uniform","1","1","1","NA","0","0","0","0","0","60","60","60","60","60","0","0","5","0","60","60","0","0","NA","0","60","0","60","NA","0","60","60","12/06/16 15:22:21","The main experiment item","yes","b","W:\Sussex\Consciousness and control\Exp 1 - stroop suggestion and PCE\Methods\Palfi_script","no","mono","no","18","no","black","no","Ok","NA","no","Female","768","legacy","C:/Users/User/Dropbox/Sussex/Consciousness and control/Exp 1 - stroop suggestion and PCE/Methods/Palfi_script/laptop_size/subject-4.csv","legacy","Interactive Ising","3.0.2","0","b","b","space","NA","1732","1732","4932","NA","2","legacy","1024","2","48000","-16","experiment","4","even","NA","284495","103067","159483","91658","364493","363921","364458","366228","367217","279561","NA","279561","82496","366465","363956","NA","2200","NA","NA","340935","2200","367667","NA","162010","363918","364493","Stroop IC","43","136832","65","yes","1366","RED"
"75","65.1515151515","yes","65.1515151515","25","2092","2092","#ffffff","no","I","v;b;n;m","legacy","I have read and understood the information shown above","legacy","legacy","#ffef36","0","inc","uniform","0","0","1","NA","0","0","0","0","0","61","61","61","61","61","0","0","5","0","61","61","0","0","NA","0","61","0","61","NA","0","61","61","12/06/16 15:22:21","The main experiment item","yes","m","W:\Sussex\Consciousness and control\Exp 1 - stroop suggestion and PCE\Methods\Palfi_script","no","mono","no","18","no","black","no","Ok","NA","no","Female","768","legacy","C:/Users/User/Dropbox/Sussex/Consciousness and control/Exp 1 - stroop suggestion and PCE/Methods/Palfi_script/laptop_size/subject-4.csv","legacy","Interactive Ising","3.0.2","0","v","v","space","NA","1266","1266","4932","NA","2","legacy","1024","2","48000","-16","experiment","4","even","NA","284495","103067","159483","91658","368381","367808","368345","369650","370638","279561","NA","279561","82496","366465","367843","NA","2200","NA","NA","369886","2200","371088","NA","162010","367805","368381","Stroop IC","43","138098","66","yes","1366","RED"
"16","64.1791044776","yes","64.1791044776","25","2091","2091","#ffffff","no","I","v;b;n;m","legacy","I have read and understood the information shown above","legacy","legacy","red","0","inc","uniform","0","0","1","NA","0","0","0","0","0","62","62","62","62","62","0","0","5","0","62","62","0","0","NA","0","62","0","62","NA","0","62","62","12/06/16 15:22:21","The main experiment item","yes","v","W:\Sussex\Consciousness and control\Exp 1 - stroop suggestion and PCE\Methods\Palfi_script","no","mono","no","18","no","black","no","Ok","NA","no","Female","768","legacy","C:/Users/User/Dropbox/Sussex/Consciousness and control/Exp 1 - stroop suggestion and PCE/Methods/Palfi_script/laptop_size/subject-4.csv","legacy","Interactive Ising","3.0.2","0","None","None","space","NA","2000","2000","4932","NA","2","legacy","1024","2","48000","-16","experiment","4","even","NA","284495","103067","159483","91658","371807","371235","371772","373809","374798","279561","NA","279561","82496","366465","371270","NA","2200","NA","NA","374046","2200","375248","NA","162010","371233","371807","Stroop IC","43","140098","67","yes","1366","GREEN"
"57","64.7058823529","yes","64.7058823529","25","2080","2080","#ffffff","no","I","v;b;n;m","legacy","I have read and understood the information shown above","legacy","legacy","green","0","inc","uniform","1","1","1","NA","0","0","0","0","0","63","63","63","63","63","0","0","5","0","63","63","0","0","NA","0","63","0","63","NA","0","63","63","12/06/16 15:22:21","The main experiment item","yes","n","W:\Sussex\Consciousness and control\Exp 1 - stroop suggestion and PCE\Methods\Palfi_script","no","mono","no","18","no","black","no","Ok","NA","no","Female","768","legacy","C:/Users/User/Dropbox/Sussex/Consciousness and control/Exp 1 - stroop suggestion and PCE/Methods/Palfi_script/laptop_size/subject-4.csv","legacy","Interactive Ising","3.0.2","0","n","n","space","NA","1386","1386","4932","NA","2","legacy","1024","2","48000","-16","experiment","4","even","NA","284495","103067","159483","91658","375953","375381","375918","377342","378330","279561","NA","279561","82496","377578","375416","NA","2200","NA","NA","374046","2200","378780","NA","162010","375379","375953","Stroop IC","44","141484","68","yes","1366","BLUE"
"70","65.2173913043","yes","65.2173913043","25","2061","2061","#ffffff","no","I","v;b;n;m","legacy","I have read and understood the information shown above","legacy","legacy","green","0","inc","uniform","1","1","1","NA","0","0","0","0","0","64","64","64","64","64","0","0","5","0","64","64","0","0","NA","0","64","0","64","NA","0","64","64","12/06/16 15:22:21","The main experiment item","yes","n","W:\Sussex\Consciousness and control\Exp 1 - stroop suggestion and PCE\Methods\Palfi_script","no","mono","no","18","no","black","no","Ok","NA","no","Female","768","legacy","C:/Users/User/Dropbox/Sussex/Consciousness and control/Exp 1 - stroop suggestion and PCE/Methods/Palfi_script/laptop_size/subject-4.csv","legacy","Interactive Ising","3.0.2","0","n","n","space","NA","753","753","4932","NA","2","legacy","1024","2","48000","-16","experiment","4","even","NA","284495","103067","159483","91658","379492","378920","379457","380248","381236","279561","NA","279561","82496","380484","378955","NA","2200","NA","NA","374046","2200","381686","NA","162010","378917","379492","Stroop IC","45","142237","69","yes","1366","YELLOW"
"51","65.7142857143","yes","65.7142857143","25","2042","2042","#ffffff","no","I","v;b;n;m","legacy","I have read and understood the information shown above","legacy","legacy","green","0","inc","uniform","1","1","1","NA","0","0","0","0","0","65","65","65","65","65","0","0","5","0","65","65","0","0","NA","0","65","0","65","NA","0","65","65","12/06/16 15:22:21","The main experiment item","yes","n","W:\Sussex\Consciousness and control\Exp 1 - stroop suggestion and PCE\Methods\Palfi_script","no","mono","no","18","no","black","no","Ok","NA","no","Female","768","legacy","C:/Users/User/Dropbox/Sussex/Consciousness and control/Exp 1 - stroop suggestion and PCE/Methods/Palfi_script/laptop_size/subject-4.csv","legacy","Interactive Ising","3.0.2","0","n","n","space","NA","736","736","4932","NA","2","legacy","1024","2","48000","-16","experiment","4","even","NA","284495","103067","159483","91658","382390","381818","382355","383129","384121","279561","NA","279561","82496","383367","381853","NA","2200","NA","NA","374046","2200","384571","NA","162010","381815","382390","Stroop IC","46","142973","70","yes","1366","RED"
"85","66.1971830986","yes","66.1971830986","25","2039","2039","#ffffff","no","I","v;b;n;m","legacy","I have read and understood the information shown above","legacy","legacy","#ffef36","0","inc","uniform","1","1","1","NA","0","0","0","0","0","66","66","66","66","66","0","0","5","0","66","66","0","0","NA","0","66","0","66","NA","0","66","66","12/06/16 15:22:21","The main experiment item","yes","m","W:\Sussex\Consciousness and control\Exp 1 - stroop suggestion and PCE\Methods\Palfi_script","no","mono","no","18","no","black","no","Ok","NA","no","Female","768","legacy","C:/Users/User/Dropbox/Sussex/Consciousness and control/Exp 1 - stroop suggestion and PCE/Methods/Palfi_script/laptop_size/subject-4.csv","legacy","Interactive Ising","3.0.2","0","m","m","space","NA","1828","1828","4932","NA","2","legacy","1024","2","48000","-16","experiment","4","even","NA","284495","103067","159483","91658","385293","384720","385257","387123","388112","279561","NA","279561","82496","387360","384755","NA","2200","NA","NA","374046","2200","388563","NA","162010","384718","385293","Stroop IC","47","144801","71","yes","1366","BLUE"
"28","65.2777777778","yes","65.2777777778","25","2025","2025","#ffffff","no","I","v;b;n;m","legacy","I have read and understood the information shown above","legacy","legacy","blue","0","inc","uniform","0","0","1","NA","0","0","0","0","0","67","67","67","67","67","0","0","5","0","67","67","0","0","NA","0","67","0","67","NA","0","67","67","12/06/16 15:22:21","The main experiment item","yes","b","W:\Sussex\Consciousness and control\Exp 1 - stroop suggestion and PCE\Methods\Palfi_script","no","mono","no","18","no","black","no","Ok","NA","no","Female","768","legacy","C:/Users/User/Dropbox/Sussex/Consciousness and control/Exp 1 - stroop suggestion and PCE/Methods/Palfi_script/laptop_size/subject-4.csv","legacy","Interactive Ising","3.0.2","0","v","v","space","NA","1019","1019","4932","NA","2","legacy","1024","2","48000","-16","experiment","4","even","NA","284495","103067","159483","91658","389343","388771","389308","390365","391353","279561","NA","279561","82496","387360","388806","NA","2200","NA","NA","390601","2200","391803","NA","162010","388769","389343","Stroop IC","47","145820","72","yes","1366","RED"
"69","64.3835616438","yes","64.3835616438","25","2017","2017","#ffffff","no","I","v;b;n;m","legacy","I have read and understood the information shown above","legacy","legacy","green","0","inc","uniform","0","0","1","NA","0","0","0","0","0","68","68","68","68","68","0","0","5","0","68","68","0","0","NA","0","68","0","68","NA","0","68","68","12/06/16 15:22:21","The main experiment item","yes","n","W:\Sussex\Consciousness and control\Exp 1 - stroop suggestion and PCE\Methods\Palfi_script","no","mono","no","18","no","black","no","Ok","NA","no","Female","768","legacy","C:/Users/User/Dropbox/Sussex/Consciousness and control/Exp 1 - stroop suggestion and PCE/Methods/Palfi_script/laptop_size/subject-4.csv","legacy","Interactive Ising","3.0.2","0","v","v","space","NA","1492","1492","4932","NA","2","legacy","1024","2","48000","-16","experiment","4","even","NA","284495","103067","159483","91658","392519","391946","392484","394014","395004","279561","NA","279561","82496","387360","391982","NA","2200","NA","NA","394250","2200","395454","NA","162010","391944","392519","Stroop IC","47","147312","73","yes","1366","YELLOW"
"5","64.8648648649","yes","64.8648648649","25","2007","2007","#ffffff","no","I","v;b;n;m","legacy","I have read and understood the information shown above","legacy","legacy","red","0","inc","uniform","1","1","1","NA","0","0","0","0","0","69","69","69","69","69","0","0","5","0","69","69","0","0","NA","0","69","0","69","NA","0","69","69","12/06/16 15:22:21","The main experiment item","yes","v","W:\Sussex\Consciousness and control\Exp 1 - stroop suggestion and PCE\Methods\Palfi_script","no","mono","no","18","no","black","no","Ok","NA","no","Female","768","legacy","C:/Users/User/Dropbox/Sussex/Consciousness and control/Exp 1 - stroop suggestion and PCE/Methods/Palfi_script/laptop_size/subject-4.csv","legacy","Interactive Ising","3.0.2","0","v","v","space","NA","1207","1207","4932","NA","2","legacy","1024","2","48000","-16","experiment","4","even","NA","284495","103067","159483","91658","396183","395611","396148","397393","398381","279561","NA","279561","82496","397629","395646","NA","2200","NA","NA","394250","2200","398831","NA","162010","395609","396183","Stroop IC","48","148519","74","yes","1366","BLUE"
"118","65.3333333333","yes","65.3333333333","25","2000","2000","#ffffff","no","I","v;b;n;m","legacy","I have read and understood the information shown above","legacy","legacy","#ffef36","0","neutral","uniform","1","1","1","NA","0","0","0","0","0","70","70","70","70","70","0","0","5","0","70","70","0","0","NA","0","70","0","70","NA","0","70","70","12/06/16 15:22:21","The main experiment item","yes","m","W:\Sussex\Consciousness and control\Exp 1 - stroop suggestion and PCE\Methods\Palfi_script","no","mono","no","18","no","black","no","Ok","NA","no","Female","768","legacy","C:/Users/User/Dropbox/Sussex/Consciousness and control/Exp 1 - stroop suggestion and PCE/Methods/Palfi_script/laptop_size/subject-4.csv","legacy","Interactive Ising","3.0.2","0","m","m","space","NA","1515","1515","4932","NA","2","legacy","1024","2","48000","-16","experiment","4","even","NA","284495","103067","159483","91658","399542","398969","399507","401060","402048","279561","NA","279561","82496","401296","399004","NA","2200","NA","NA","394250","2200","402498","NA","162010","398967","399542","Stroop IC","49","150034","75","yes","1366","LOT"
"46","64.4736842105","yes","64.4736842105","25","2000","2000","#ffffff","no","I","v;b;n;m","legacy","I have read and understood the information shown above","legacy","legacy","blue","0","inc","uniform","0","0","1","NA","0","0","0","0","0","71","71","71","71","71","0","0","5","0","71","71","0","0","NA","0","71","0","71","NA","0","71","71","12/06/16 15:22:21","The main experiment item","yes","b","W:\Sussex\Consciousness and control\Exp 1 - stroop suggestion and PCE\Methods\Palfi_script","no","mono","no","18","no","black","no","Ok","NA","no","Female","768","legacy","C:/Users/User/Dropbox/Sussex/Consciousness and control/Exp 1 - stroop suggestion and PCE/Methods/Palfi_script/laptop_size/subject-4.csv","legacy","Interactive Ising","3.0.2","0","None","None","space","NA","2000","2000","4932","NA","2","legacy","1024","2","48000","-16","experiment","4","even","NA","284495","103067","159483","91658","403261","402688","403226","405264","406252","279561","NA","279561","82496","401296","402724","NA","2200","NA","NA","405500","2200","406702","NA","162010","402686","403261","Stroop IC","49","152034","76","yes","1366","YELLOW"
"54","63.6363636364","yes","63.6363636364","25","1996","1996","#ffffff","no","I","v;b;n;m","legacy","I have read and understood the information shown above","legacy","legacy","green","0","inc","uniform","0","0","1","NA","0","0","0","0","0","72","72","72","72","72","0","0","5","0","72","72","0","0","NA","0","72","0","72","NA","0","72","72","12/06/16 15:22:21","The main experiment item","yes","n","W:\Sussex\Consciousness and control\Exp 1 - stroop suggestion and PCE\Methods\Palfi_script","no","mono","no","18","no","black","no","Ok","NA","no","Female","768","legacy","C:/Users/User/Dropbox/Sussex/Consciousness and control/Exp 1 - stroop suggestion and PCE/Methods/Palfi_script/laptop_size/subject-4.csv","legacy","Interactive Ising","3.0.2","0","b","b","space","NA","1698","1698","4932","NA","2","legacy","1024","2","48000","-16","experiment","4","even","NA","284495","103067","159483","91658","407424","406852","407389","409125","410116","279561","NA","279561","82496","401296","406887","NA","2200","NA","NA","409364","2200","410567","NA","162010","406850","407424","Stroop IC","49","153732","77","yes","1366","RED"
"67","64.1025641026","yes","64.1025641026","25","1990","1990","#ffffff","no","I","v;b;n;m","legacy","I have read and understood the information shown above","legacy","legacy","green","0","inc","uniform","1","1","1","NA","0","0","0","0","0","73","73","73","73","73","0","0","5","0","73","73","0","0","NA","0","73","0","73","NA","0","73","73","12/06/16 15:22:21","The main experiment item","yes","n","W:\Sussex\Consciousness and control\Exp 1 - stroop suggestion and PCE\Methods\Palfi_script","no","mono","no","18","no","black","no","Ok","NA","no","Female","768","legacy","C:/Users/User/Dropbox/Sussex/Consciousness and control/Exp 1 - stroop suggestion and PCE/Methods/Palfi_script/laptop_size/subject-4.csv","legacy","Interactive Ising","3.0.2","0","n","n","space","NA","1563","1563","4932","NA","2","legacy","1024","2","48000","-16","experiment","4","even","NA","284495","103067","159483","91658","411307","410735","411272","412874","413866","279561","NA","279561","82496","413114","410770","NA","2200","NA","NA","409364","2200","414316","NA","162010","410733","411307","Stroop IC","50","155295","78","yes","1366","YELLOW"
"6","64.5569620253","yes","64.5569620253","25","1979","1979","#ffffff","no","I","v;b;n;m","legacy","I have read and understood the information shown above","legacy","legacy","red","0","inc","uniform","1","1","1","NA","0","0","0","0","0","74","74","74","74","74","0","0","5","0","74","74","0","0","NA","0","74","0","74","NA","0","74","74","12/06/16 15:22:21","The main experiment item","yes","v","W:\Sussex\Consciousness and control\Exp 1 - stroop suggestion and PCE\Methods\Palfi_script","no","mono","no","18","no","black","no","Ok","NA","no","Female","768","legacy","C:/Users/User/Dropbox/Sussex/Consciousness and control/Exp 1 - stroop suggestion and PCE/Methods/Palfi_script/laptop_size/subject-4.csv","legacy","Interactive Ising","3.0.2","0","v","v","space","NA","1052","1052","4932","NA","2","legacy","1024","2","48000","-16","experiment","4","even","NA","284495","103067","159483","91658","415020","414448","414985","416075","417066","279561","NA","279561","82496","416312","414483","NA","2200","NA","NA","409364","2200","417516","NA","162010","414446","415020","Stroop IC","51","156347","79","yes","1366","BLUE"
"10","65","yes","65","25","1963","1963","#ffffff","no","I","v;b;n;m","legacy","I have read and understood the information shown above","legacy","legacy","red","0","inc","uniform","1","1","1","NA","0","0","0","0","0","75","75","75","75","75","0","0","5","0","75","75","0","0","NA","0","75","0","75","NA","0","75","75","12/06/16 15:22:21","The main experiment item","yes","v","W:\Sussex\Consciousness and control\Exp 1 - stroop suggestion and PCE\Methods\Palfi_script","no","mono","no","18","no","black","no","Ok","NA","no","Female","768","legacy","C:/Users/User/Dropbox/Sussex/Consciousness and control/Exp 1 - stroop suggestion and PCE/Methods/Palfi_script/laptop_size/subject-4.csv","legacy","Interactive Ising","3.0.2","0","v","v","space","NA","697","697","4932","NA","2","legacy","1024","2","48000","-16","experiment","4","even","NA","284495","103067","159483","91658","418229","417657","418194","418935","419923","279561","NA","279561","82496","419171","417692","NA","2200","NA","NA","409364","2200","420373","NA","162010","417655","418229","Stroop IC","52","157044","80","yes","1366","GREEN"
"7","65.4320987654","yes","65.4320987654","25","1949","1949","#ffffff","no","I","v;b;n;m","legacy","I have read and understood the information shown above","legacy","legacy","red","0","inc","uniform","1","1","1","NA","0","0","0","0","0","76","76","76","76","76","0","0","5","0","76","76","0","0","NA","0","76","0","76","NA","0","76","76","12/06/16 15:22:21","The main experiment item","yes","v","W:\Sussex\Consciousness and control\Exp 1 - stroop suggestion and PCE\Methods\Palfi_script","no","mono","no","18","no","black","no","Ok","NA","no","Female","768","legacy","C:/Users/User/Dropbox/Sussex/Consciousness and control/Exp 1 - stroop suggestion and PCE/Methods/Palfi_script/laptop_size/subject-4.csv","legacy","Interactive Ising","3.0.2","0","v","v","space","NA","867","867","4932","NA","2","legacy","1024","2","48000","-16","experiment","4","even","NA","284495","103067","159483","91658","421078","420506","421043","421948","422937","279561","NA","279561","82496","422184","420541","NA","2200","NA","NA","409364","2200","423387","NA","162010","420504","421078","Stroop IC","53","157911","81","yes","1366","BLUE"
"89","64.6341463415","yes","64.6341463415","25","1937","1937","#ffffff","no","I","v;b;n;m","legacy","I have read and understood the information shown above","legacy","legacy","#ffef36","0","inc","uniform","0","0","1","NA","0","0","0","0","0","77","77","77","77","77","0","0","5","0","77","77","0","0","NA","0","77","0","77","NA","0","77","77","12/06/16 15:22:21","The main experiment item","yes","m","W:\Sussex\Consciousness and control\Exp 1 - stroop suggestion and PCE\Methods\Palfi_script","no","mono","no","18","no","black","no","Ok","NA","no","Female","768","legacy","C:/Users/User/Dropbox/Sussex/Consciousness and control/Exp 1 - stroop suggestion and PCE/Methods/Palfi_script/laptop_size/subject-4.csv","legacy","Interactive Ising","3.0.2","0","n","n","space","NA","966","966","4932","NA","2","legacy","1024","2","48000","-16","experiment","4","even","NA","284495","103067","159483","91658","424109","423537","424074","425079","426067","279561","NA","279561","82496","422184","423572","NA","2200","NA","NA","425315","2200","426517","NA","162010","423534","424109","Stroop IC","53","158877","82","yes","1366","GREEN"
"38","65.0602409639","yes","65.0602409639","25","1926","1926","#ffffff","no","I","v;b;n;m","legacy","I have read and understood the information shown above","legacy","legacy","blue","0","inc","uniform","1","1","1","NA","0","0","0","0","0","78","78","78","78","78","0","0","5","0","78","78","0","0","NA","0","78","0","78","NA","0","78","78","12/06/16 15:22:21","The main experiment item","yes","b","W:\Sussex\Consciousness and control\Exp 1 - stroop suggestion and PCE\Methods\Palfi_script","no","mono","no","18","no","black","no","Ok","NA","no","Female","768","legacy","C:/Users/User/Dropbox/Sussex/Consciousness and control/Exp 1 - stroop suggestion and PCE/Methods/Palfi_script/laptop_size/subject-4.csv","legacy","Interactive Ising","3.0.2","0","b","b","space","NA","1009","1009","4932","NA","2","legacy","1024","2","48000","-16","experiment","4","even","NA","284495","103067","159483","91658","427239","426667","427204","428251","429239","279561","NA","279561","82496","428487","426702","NA","2200","NA","NA","425315","2200","429689","NA","162010","426665","427239","Stroop IC","54","159886","83","yes","1366","GREEN"
"115","64.2857142857","yes","64.2857142857","25","1927","1927","#ffffff","no","I","v;b;n;m","legacy","I have read and understood the information shown above","legacy","legacy","green","0","neutral","uniform","0","0","1","NA","0","0","0","0","0","79","79","79","79","79","0","0","5","0","79","79","0","0","NA","0","79","0","79","NA","0","79","79","12/06/16 15:22:21","The main experiment item","yes","n","W:\Sussex\Consciousness and control\Exp 1 - stroop suggestion and PCE\Methods\Palfi_script","no","mono","no","18","no","black","no","Ok","NA","no","Female","768","legacy","C:/Users/User/Dropbox/Sussex/Consciousness and control/Exp 1 - stroop suggestion and PCE/Methods/Palfi_script/laptop_size/subject-4.csv","legacy","Interactive Ising","3.0.2","0","None","None","space","NA","2000","2000","4932","NA","2","legacy","1024","2","48000","-16","experiment","4","even","NA","284495","103067","159483","91658","430415","429842","430380","432417","433405","279561","NA","279561","82496","428487","429878","NA","2200","NA","NA","432653","2200","433855","NA","162010","429840","430415","Stroop IC","54","161886","84","yes","1366","LOT"
"86","64.7058823529","yes","64.7058823529","25","1921","1921","#ffffff","no","I","v;b;n;m","legacy","I have read and understood the information shown above","legacy","legacy","#ffef36","0","inc","uniform","1","1","1","NA","0","0","0","0","0","80","80","80","80","80","0","0","5","0","80","80","0","0","NA","0","80","0","80","NA","0","80","80","12/06/16 15:22:21","The main experiment item","yes","m","W:\Sussex\Consciousness and control\Exp 1 - stroop suggestion and PCE\Methods\Palfi_script","no","mono","no","18","no","black","no","Ok","NA","no","Female","768","legacy","C:/Users/User/Dropbox/Sussex/Consciousness and control/Exp 1 - stroop suggestion and PCE/Methods/Palfi_script/laptop_size/subject-4.csv","legacy","Interactive Ising","3.0.2","0","m","m","space","NA","1473","1473","4932","NA","2","legacy","1024","2","48000","-16","experiment","4","even","NA","284495","103067","159483","91658","434576","434004","434541","436052","437040","279561","NA","279561","82496","436288","434039","NA","2200","NA","NA","432653","2200","437490","NA","162010","434001","434576","Stroop IC","55","163359","85","yes","1366","BLUE"
"59","65.1162790698","yes","65.1162790698","25","1911","1911","#ffffff","no","I","v;b;n;m","legacy","I have read and understood the information shown above","legacy","legacy","green","0","inc","uniform","1","1","1","NA","0","0","0","0","0","81","81","81","81","81","0","0","5","0","81","81","0","0","NA","0","81","0","81","NA","0","81","81","12/06/16 15:22:21","The main experiment item","yes","n","W:\Sussex\Consciousness and control\Exp 1 - stroop suggestion and PCE\Methods\Palfi_script","no","mono","no","18","no","black","no","Ok","NA","no","Female","768","legacy","C:/Users/User/Dropbox/Sussex/Consciousness and control/Exp 1 - stroop suggestion and PCE/Methods/Palfi_script/laptop_size/subject-4.csv","legacy","Interactive Ising","3.0.2","0","n","n","space","NA","1003","1003","4932","NA","2","legacy","1024","2","48000","-16","experiment","4","even","NA","284495","103067","159483","91658","438222","437649","438187","439227","440218","279561","NA","279561","82496","439466","437684","NA","2200","NA","NA","432653","2200","440673","NA","162010","437647","438222","Stroop IC","56","164362","86","yes","1366","BLUE"
"21","65.5172413793","yes","65.5172413793","25","1901","1901","#ffffff","no","I","v;b;n;m","legacy","I have read and understood the information shown above","legacy","legacy","red","0","inc","uniform","1","1","1","NA","0","0","0","0","0","82","82","82","82","82","0","0","5","0","82","82","0","0","NA","0","82","0","82","NA","0","82","82","12/06/16 15:22:21","The main experiment item","yes","v","W:\Sussex\Consciousness and control\Exp 1 - stroop suggestion and PCE\Methods\Palfi_script","no","mono","no","18","no","black","no","Ok","NA","no","Female","768","legacy","C:/Users/User/Dropbox/Sussex/Consciousness and control/Exp 1 - stroop suggestion and PCE/Methods/Palfi_script/laptop_size/subject-4.csv","legacy","Interactive Ising","3.0.2","0","v","v","space","NA","1100","1100","4932","NA","2","legacy","1024","2","48000","-16","experiment","4","even","NA","284495","103067","159483","91658","441412","440840","441377","442514","443504","279561","NA","279561","82496","442752","440875","NA","2200","NA","NA","432653","2200","443954","NA","162010","440837","441412","Stroop IC","57","165462","87","yes","1366","YELLOW"
"76","65.9090909091","yes","65.9090909091","25","1895","1895","#ffffff","no","I","v;b;n;m","legacy","I have read and understood the information shown above","legacy","legacy","#ffef36","0","inc","uniform","1","1","1","NA","0","0","0","0","0","83","83","83","83","83","0","0","5","0","83","83","0","0","NA","0","83","0","83","NA","0","83","83","12/06/16 15:22:21","The main experiment item","yes","m","W:\Sussex\Consciousness and control\Exp 1 - stroop suggestion and PCE\Methods\Palfi_script","no","mono","no","18","no","black","no","Ok","NA","no","Female","768","legacy","C:/Users/User/Dropbox/Sussex/Consciousness and control/Exp 1 - stroop suggestion and PCE/Methods/Palfi_script/laptop_size/subject-4.csv","legacy","Interactive Ising","3.0.2","0","m","m","space","NA","1366","1366","4932","NA","2","legacy","1024","2","48000","-16","experiment","4","even","NA","284495","103067","159483","91658","444670","444097","444634","446040","447032","279561","NA","279561","82496","446279","444132","NA","2200","NA","NA","432653","2200","447482","NA","162010","444095","444670","Stroop IC","58","166828","88","yes","1366","RED"
"95","66.2921348315","yes","66.2921348315","25","1884","1884","#ffffff","no","I","v;b;n;m","legacy","I have read and understood the information shown above","legacy","legacy","#ffef36","0","inc","uniform","1","1","1","NA","0","0","0","0","0","84","84","84","84","84","0","0","5","0","84","84","0","0","NA","0","84","0","84","NA","0","84","84","12/06/16 15:22:21","The main experiment item","yes","m","W:\Sussex\Consciousness and control\Exp 1 - stroop suggestion and PCE\Methods\Palfi_script","no","mono","no","18","no","black","no","Ok","NA","no","Female","768","legacy","C:/Users/User/Dropbox/Sussex/Consciousness and control/Exp 1 - stroop suggestion and PCE/Methods/Palfi_script/laptop_size/subject-4.csv","legacy","Interactive Ising","3.0.2","0","m","m","space","NA","915","915","4932","NA","2","legacy","1024","2","48000","-16","experiment","4","even","NA","284495","103067","159483","91658","448230","447658","448195","449149","450137","279561","NA","279561","82496","449385","447693","NA","2200","NA","NA","432653","2200","450587","NA","162010","447656","448230","Stroop IC","59","167743","89","yes","1366","GREEN"
"73","66.6666666667","yes","66.6666666667","25","1873","1873","#ffffff","no","I","v;b;n;m","legacy","I have read and understood the information shown above","legacy","legacy","#ffef36","0","inc","uniform","1","1","1","NA","0","0","0","0","0","85","85","85","85","85","0","0","5","0","85","85","0","0","NA","0","85","0","85","NA","0","85","85","12/06/16 15:22:21","The main experiment item","yes","m","W:\Sussex\Consciousness and control\Exp 1 - stroop suggestion and PCE\Methods\Palfi_script","no","mono","no","18","no","black","no","Ok","NA","no","Female","768","legacy","C:/Users/User/Dropbox/Sussex/Consciousness and control/Exp 1 - stroop suggestion and PCE/Methods/Palfi_script/laptop_size/subject-4.csv","legacy","Interactive Ising","3.0.2","0","m","m","space","NA","833","833","4932","NA","2","legacy","1024","2","48000","-16","experiment","4","even","NA","284495","103067","159483","91658","451315","450743","451280","452151","453139","279561","NA","279561","82496","452387","450778","NA","2200","NA","NA","432653","2200","453589","NA","162010","450740","451315","Stroop IC","60","168576","90","yes","1366","RED"
"68","67.032967033","yes","67.032967033","25","1869","1869","#ffffff","no","I","v;b;n;m","legacy","I have read and understood the information shown above","legacy","legacy","green","0","inc","uniform","1","1","1","NA","0","0","0","0","0","86","86","86","86","86","0","0","5","0","86","86","0","0","NA","0","86","0","86","NA","0","86","86","12/06/16 15:22:21","The main experiment item","yes","n","W:\Sussex\Consciousness and control\Exp 1 - stroop suggestion and PCE\Methods\Palfi_script","no","mono","no","18","no","black","no","Ok","NA","no","Female","768","legacy","C:/Users/User/Dropbox/Sussex/Consciousness and control/Exp 1 - stroop suggestion and PCE/Methods/Palfi_script/laptop_size/subject-4.csv","legacy","Interactive Ising","3.0.2","0","n","n","space","NA","1584","1584","4932","NA","2","legacy","1024","2","48000","-16","experiment","4","even","NA","284495","103067","159483","91658","454289","453715","454254","455876","456867","279561","NA","279561","82496","456113","453750","NA","2200","NA","NA","432653","2200","457317","NA","162010","453712","454289","Stroop IC","61","170160","91","yes","1366","YELLOW"
