"ID","acc","accept_status","accuracy","age","average_response_time","avg_rt","background","bidi","block","buttons","canvas_backend","checkbox_status","clock_backend","color_backend","colour","compensation","congruency","coordinates","correct","correct_answer","correct_button_block","correct_new_keyboard_response","count_C","count_I","count_Instruction","count_Practice_start","count_age","count_answer","count_blank","count_blank2","count_blank3","count_blank_4","count_break","count_break2","count_button_block","count_consent_form","count_correct_feedback","count_cross","count_end","count_experiment","count_feedback","count_gender","count_incorrect_feedback","count_information_sheet","count_logger","count_new_keyboard_response","count_practice","count_stroop","count_target","datetime","description","disable_garbage_collection","expected","experiment_path","font_bold","font_family","font_italic","font_size","font_underline","foreground","form_clicks","form_response","form_var","fullscreen","gender","height","keyboard_backend","logfile","mouse_backend","opensesame_codename","opensesame_version","repeat_cycle","response","response_answer","response_button_block","response_new_keyboard_response","response_time","response_time_answer","response_time_button_block","response_time_new_keyboard_response","round_decimals","sampler_backend","sound_buf_size","sound_channels","sound_freq","sound_sample_size","start","subject_nr","subject_parity","time_C","time_I","time_Instruction","time_Practice_start","time_age","time_answer","time_blank","time_blank2","time_blank3","time_blank_4","time_break","time_break2","time_button_block","time_consent_form","time_correct_feedback","time_cross","time_end","time_experiment","time_feedback","time_gender","time_incorrect_feedback","time_information_sheet","time_logger","time_new_keyboard_response","time_practice","time_stroop","time_target","title","total_correct","total_response_time","total_responses","uniform_coordinates","width","word"
"32","100","yes","100","23","14405","14405","#ffffff","no","practice","v;b;n;m","legacy","I have read and understood the information shown above","legacy","legacy","green","0","neutral","uniform","1","1","1","NA","0","0","0","0","0","0","0","0","0","0","0","0","5","0","0","0","0","0","NA","0","0","0","0","NA","0","0","0","12/06/16 16:11:46","The main experiment item","yes","n","W:\Sussex\Consciousness and control\Exp 1 - stroop suggestion and PCE\Methods\Palfi_script","no","mono","no","18","no","black","no","Ok","NA","no","Female","768","legacy","C:/Users/User/Dropbox/Sussex/Consciousness and control/Exp 1 - stroop suggestion and PCE/Methods/Palfi_script/laptop_size/subject-5.csv","legacy","Interactive Ising","3.0.2","0","n","n","space","NA","1222","1222","2419","NA","2","legacy","1024","2","48000","-16","experiment","5","odd","NA","NA","57491","106533","52208","109633","109059","109598","110858","111849","NA","NA","106533","44037","111094","109094","NA","2399","NA","NA","NA","2399","112299","NA","108953","109057","109633","Stroop CI","4","57622","4","yes","1366","SHIP"
"27","100","yes","100","23","11659","11659","#ffffff","no","practice","v;b;n;m","legacy","I have read and understood the information shown above","legacy","legacy","red","0","neutral","uniform","1","1","1","NA","0","0","0","0","0","1","1","1","1","1","0","0","5","0","1","1","0","0","NA","0","1","0","1","NA","0","1","1","12/06/16 16:11:46","The main experiment item","yes","v","W:\Sussex\Consciousness and control\Exp 1 - stroop suggestion and PCE\Methods\Palfi_script","no","mono","no","18","no","black","no","Ok","NA","no","Female","768","legacy","C:/Users/User/Dropbox/Sussex/Consciousness and control/Exp 1 - stroop suggestion and PCE/Methods/Palfi_script/laptop_size/subject-5.csv","legacy","Interactive Ising","3.0.2","0","v","v","space","NA","676","676","2419","NA","2","legacy","1024","2","48000","-16","experiment","5","odd","NA","NA","57491","106533","52208","113084","112512","113049","113763","114753","NA","NA","106533","44037","114001","112547","NA","2399","NA","NA","NA","2399","115203","NA","108953","112509","113084","Stroop CI","5","58298","5","yes","1366","FLOWER"
"2","100","yes","100","23","9805","9805","#ffffff","no","practice","v;b;n;m","legacy","I have read and understood the information shown above","legacy","legacy","red","0","inc","uniform","1","1","1","NA","0","0","0","0","0","2","2","2","2","2","0","0","5","0","2","2","0","0","NA","0","2","0","2","NA","0","2","2","12/06/16 16:11:46","The main experiment item","yes","v","W:\Sussex\Consciousness and control\Exp 1 - stroop suggestion and PCE\Methods\Palfi_script","no","mono","no","18","no","black","no","Ok","NA","no","Female","768","legacy","C:/Users/User/Dropbox/Sussex/Consciousness and control/Exp 1 - stroop suggestion and PCE/Methods/Palfi_script/laptop_size/subject-5.csv","legacy","Interactive Ising","3.0.2","0","v","v","space","NA","537","537","2419","NA","2","legacy","1024","2","48000","-16","experiment","5","odd","NA","NA","57491","106533","52208","115957","115385","115922","116498","117490","NA","NA","106533","44037","116736","115420","NA","2399","NA","NA","NA","2399","117940","NA","108953","115382","115957","Stroop CI","6","58835","6","yes","1366","GREEN"
"28","100","yes","100","23","8495","8495","#ffffff","no","practice","v;b;n;m","legacy","I have read and understood the information shown above","legacy","legacy","blue","0","neutral","uniform","1","1","1","NA","0","0","0","0","0","3","3","3","3","3","0","0","5","0","3","3","0","0","NA","0","3","0","3","NA","0","3","3","12/06/16 16:11:46","The main experiment item","yes","b","W:\Sussex\Consciousness and control\Exp 1 - stroop suggestion and PCE\Methods\Palfi_script","no","mono","no","18","no","black","no","Ok","NA","no","Female","768","legacy","C:/Users/User/Dropbox/Sussex/Consciousness and control/Exp 1 - stroop suggestion and PCE/Methods/Palfi_script/laptop_size/subject-5.csv","legacy","Interactive Ising","3.0.2","0","b","b","space","NA","630","630","2419","NA","2","legacy","1024","2","48000","-16","experiment","5","odd","NA","NA","57491","106533","52208","118663","118091","118628","119296","120285","NA","NA","106533","44037","119533","118126","NA","2399","NA","NA","NA","2399","120735","NA","108953","118088","118663","Stroop CI","7","59465","7","yes","1366","LOT"
"3","100","yes","100","23","7503","7503","#ffffff","no","practice","v;b;n;m","legacy","I have read and understood the information shown above","legacy","legacy","red","0","inc","uniform","1","1","1","NA","0","0","0","0","0","4","4","4","4","4","0","0","5","0","4","4","0","0","NA","0","4","0","4","NA","0","4","4","12/06/16 16:11:46","The main experiment item","yes","v","W:\Sussex\Consciousness and control\Exp 1 - stroop suggestion and PCE\Methods\Palfi_script","no","mono","no","18","no","black","no","Ok","NA","no","Female","768","legacy","C:/Users/User/Dropbox/Sussex/Consciousness and control/Exp 1 - stroop suggestion and PCE/Methods/Palfi_script/laptop_size/subject-5.csv","legacy","Interactive Ising","3.0.2","0","v","v","space","NA","564","564","2419","NA","2","legacy","1024","2","48000","-16","experiment","5","odd","NA","NA","57491","106533","52208","121458","120886","121423","122025","123014","NA","NA","106533","44037","122262","120921","NA","2399","NA","NA","NA","2399","123464","NA","108953","120883","121458","Stroop CI","8","60029","8","yes","1366","YELLOW"
"24","100","yes","100","23","6737","6737","#ffffff","no","practice","v;b;n;m","legacy","I have read and understood the information shown above","legacy","legacy","#ffef36","0","con","uniform","1","1","1","NA","0","0","0","0","0","5","5","5","5","5","0","0","5","0","5","5","0","0","NA","0","5","0","5","NA","0","5","5","12/06/16 16:11:46","The main experiment item","yes","m","W:\Sussex\Consciousness and control\Exp 1 - stroop suggestion and PCE\Methods\Palfi_script","no","mono","no","18","no","black","no","Ok","NA","no","Female","768","legacy","C:/Users/User/Dropbox/Sussex/Consciousness and control/Exp 1 - stroop suggestion and PCE/Methods/Palfi_script/laptop_size/subject-5.csv","legacy","Interactive Ising","3.0.2","0","m","m","space","NA","612","612","2419","NA","2","legacy","1024","2","48000","-16","experiment","5","odd","NA","NA","57491","106533","52208","124164","123591","124129","124780","125770","NA","NA","106533","44037","125018","123627","NA","2399","NA","NA","NA","2399","126220","NA","108953","123589","124164","Stroop CI","9","60641","9","yes","1366","YELLOW"
"11","100","yes","100","23","6125","6125","#ffffff","no","practice","v;b;n;m","legacy","I have read and understood the information shown above","legacy","legacy","#ffef36","0","inc","uniform","1","1","1","NA","0","0","0","0","0","6","6","6","6","6","0","0","5","0","6","6","0","0","NA","0","6","0","6","NA","0","6","6","12/06/16 16:11:46","The main experiment item","yes","m","W:\Sussex\Consciousness and control\Exp 1 - stroop suggestion and PCE\Methods\Palfi_script","no","mono","no","18","no","black","no","Ok","NA","no","Female","768","legacy","C:/Users/User/Dropbox/Sussex/Consciousness and control/Exp 1 - stroop suggestion and PCE/Methods/Palfi_script/laptop_size/subject-5.csv","legacy","Interactive Ising","3.0.2","0","m","m","space","NA","614","614","2419","NA","2","legacy","1024","2","48000","-16","experiment","5","odd","NA","NA","57491","106533","52208","126927","126354","126891","127544","128532","NA","NA","106533","44037","127780","126389","NA","2399","NA","NA","NA","2399","128982","NA","108953","126352","126926","Stroop CI","10","61255","10","yes","1366","BLUE"
"16","100","yes","100","23","5657","5657","#ffffff","no","practice","v;b;n;m","legacy","I have read and understood the information shown above","legacy","legacy","blue","0","con","uniform","1","1","1","NA","0","0","0","0","0","7","7","7","7","7","0","0","5","0","7","7","0","0","NA","0","7","0","7","NA","0","7","7","12/06/16 16:11:46","The main experiment item","yes","b","W:\Sussex\Consciousness and control\Exp 1 - stroop suggestion and PCE\Methods\Palfi_script","no","mono","no","18","no","black","no","Ok","NA","no","Female","768","legacy","C:/Users/User/Dropbox/Sussex/Consciousness and control/Exp 1 - stroop suggestion and PCE/Methods/Palfi_script/laptop_size/subject-5.csv","legacy","Interactive Ising","3.0.2","0","b","b","space","NA","980","980","2419","NA","2","legacy","1024","2","48000","-16","experiment","5","odd","NA","NA","57491","106533","52208","129692","129119","129656","130675","131663","NA","NA","106533","44037","130911","129154","NA","2399","NA","NA","NA","2399","132114","NA","108953","129116","129691","Stroop CI","11","62235","11","yes","1366","BLUE"
"22","100","yes","100","23","5246","5246","#ffffff","no","practice","v;b;n;m","legacy","I have read and understood the information shown above","legacy","legacy","#ffef36","0","con","uniform","1","1","1","NA","0","0","0","0","0","8","8","8","8","8","0","0","5","0","8","8","0","0","NA","0","8","0","8","NA","0","8","8","12/06/16 16:11:46","The main experiment item","yes","m","W:\Sussex\Consciousness and control\Exp 1 - stroop suggestion and PCE\Methods\Palfi_script","no","mono","no","18","no","black","no","Ok","NA","no","Female","768","legacy","C:/Users/User/Dropbox/Sussex/Consciousness and control/Exp 1 - stroop suggestion and PCE/Methods/Palfi_script/laptop_size/subject-5.csv","legacy","Interactive Ising","3.0.2","0","m","m","space","NA","718","718","2419","NA","2","legacy","1024","2","48000","-16","experiment","5","odd","NA","NA","57491","106533","52208","132831","132259","132796","133552","134541","NA","NA","106533","44037","133788","132294","NA","2399","NA","NA","NA","2399","134991","NA","108953","132256","132831","Stroop CI","12","62953","12","yes","1366","YELLOW"
"15","100","yes","100","23","4885","4885","#ffffff","no","practice","v;b;n;m","legacy","I have read and understood the information shown above","legacy","legacy","red","0","con","uniform","1","1","1","NA","0","0","0","0","0","9","9","9","9","9","0","0","5","0","9","9","0","0","NA","0","9","0","9","NA","0","9","9","12/06/16 16:11:46","The main experiment item","yes","v","W:\Sussex\Consciousness and control\Exp 1 - stroop suggestion and PCE\Methods\Palfi_script","no","mono","no","18","no","black","no","Ok","NA","no","Female","768","legacy","C:/Users/User/Dropbox/Sussex/Consciousness and control/Exp 1 - stroop suggestion and PCE/Methods/Palfi_script/laptop_size/subject-5.csv","legacy","Interactive Ising","3.0.2","0","v","v","space","NA","562","562","2419","NA","2","legacy","1024","2","48000","-16","experiment","5","odd","NA","NA","57491","106533","52208","135699","135127","135664","136264","137256","NA","NA","106533","44037","136502","135162","NA","2399","NA","NA","NA","2399","137706","NA","108953","135125","135699","Stroop CI","13","63515","13","yes","1366","RED"
"18","100","yes","100","23","4593","4593","#ffffff","no","practice","v;b;n;m","legacy","I have read and understood the information shown above","legacy","legacy","blue","0","con","uniform","1","1","1","NA","0","0","0","0","0","10","10","10","10","10","0","0","5","0","10","10","0","0","NA","0","10","0","10","NA","0","10","10","12/06/16 16:11:46","The main experiment item","yes","b","W:\Sussex\Consciousness and control\Exp 1 - stroop suggestion and PCE\Methods\Palfi_script","no","mono","no","18","no","black","no","Ok","NA","no","Female","768","legacy","C:/Users/User/Dropbox/Sussex/Consciousness and control/Exp 1 - stroop suggestion and PCE/Methods/Palfi_script/laptop_size/subject-5.csv","legacy","Interactive Ising","3.0.2","0","b","b","space","NA","798","798","2419","NA","2","legacy","1024","2","48000","-16","experiment","5","odd","NA","NA","57491","106533","52208","138527","137955","138492","139328","140318","NA","NA","106533","44037","139564","137990","NA","2399","NA","NA","NA","2399","140768","NA","108953","137952","138527","Stroop CI","14","64313","14","yes","1366","BLUE"
"20","100","yes","100","23","4351","4351","#ffffff","no","practice","v;b;n;m","legacy","I have read and understood the information shown above","legacy","legacy","green","0","con","uniform","1","1","1","NA","0","0","0","0","0","11","11","11","11","11","0","0","5","0","11","11","0","0","NA","0","11","0","11","NA","0","11","11","12/06/16 16:11:46","The main experiment item","yes","n","W:\Sussex\Consciousness and control\Exp 1 - stroop suggestion and PCE\Methods\Palfi_script","no","mono","no","18","no","black","no","Ok","NA","no","Female","768","legacy","C:/Users/User/Dropbox/Sussex/Consciousness and control/Exp 1 - stroop suggestion and PCE/Methods/Palfi_script/laptop_size/subject-5.csv","legacy","Interactive Ising","3.0.2","0","n","n","space","NA","952","952","2419","NA","2","legacy","1024","2","48000","-16","experiment","5","odd","NA","NA","57491","106533","52208","141562","140990","141527","142517","143505","NA","NA","106533","44037","142753","141025","NA","2399","NA","NA","NA","2399","143955","NA","108953","140987","141562","Stroop CI","15","65265","15","yes","1366","GREEN"
"33","100","yes","100","23","4113","4113","#ffffff","no","practice","v;b;n;m","legacy","I have read and understood the information shown above","legacy","legacy","green","0","neutral","uniform","1","1","1","NA","0","0","0","0","0","12","12","12","12","12","0","0","5","0","12","12","0","0","NA","0","12","0","12","NA","0","12","12","12/06/16 16:11:46","The main experiment item","yes","n","W:\Sussex\Consciousness and control\Exp 1 - stroop suggestion and PCE\Methods\Palfi_script","no","mono","no","18","no","black","no","Ok","NA","no","Female","768","legacy","C:/Users/User/Dropbox/Sussex/Consciousness and control/Exp 1 - stroop suggestion and PCE/Methods/Palfi_script/laptop_size/subject-5.csv","legacy","Interactive Ising","3.0.2","0","n","n","space","NA","547","547","2419","NA","2","legacy","1024","2","48000","-16","experiment","5","odd","NA","NA","57491","106533","52208","144697","144125","144662","145254","146243","NA","NA","106533","44037","145490","144160","NA","2399","NA","NA","NA","2399","146693","NA","108953","144123","144697","Stroop CI","16","65812","16","yes","1366","FLOWER"
"26","100","yes","100","23","3936","3936","#ffffff","no","practice","v;b;n;m","legacy","I have read and understood the information shown above","legacy","legacy","red","0","neutral","uniform","1","1","1","NA","0","0","0","0","0","13","13","13","13","13","0","0","5","0","13","13","0","0","NA","0","13","0","13","NA","0","13","13","12/06/16 16:11:46","The main experiment item","yes","v","W:\Sussex\Consciousness and control\Exp 1 - stroop suggestion and PCE\Methods\Palfi_script","no","mono","no","18","no","black","no","Ok","NA","no","Female","768","legacy","C:/Users/User/Dropbox/Sussex/Consciousness and control/Exp 1 - stroop suggestion and PCE/Methods/Palfi_script/laptop_size/subject-5.csv","legacy","Interactive Ising","3.0.2","0","v","v","space","NA","1108","1108","2419","NA","2","legacy","1024","2","48000","-16","experiment","5","odd","NA","NA","57491","106533","52208","147407","146835","147372","148518","149506","NA","NA","106533","44037","148754","146870","NA","2399","NA","NA","NA","2399","149956","NA","108953","146833","147407","Stroop CI","17","66920","17","yes","1366","KNIFE"
"9","94.4444444444","yes","94.4444444444","23","3758","3758","#ffffff","no","practice","v;b;n;m","legacy","I have read and understood the information shown above","legacy","legacy","green","0","inc","uniform","0","0","1","NA","0","0","0","0","0","14","14","14","14","14","0","0","5","0","14","14","0","0","NA","0","14","0","14","NA","0","14","14","12/06/16 16:11:46","The main experiment item","yes","n","W:\Sussex\Consciousness and control\Exp 1 - stroop suggestion and PCE\Methods\Palfi_script","no","mono","no","18","no","black","no","Ok","NA","no","Female","768","legacy","C:/Users/User/Dropbox/Sussex/Consciousness and control/Exp 1 - stroop suggestion and PCE/Methods/Palfi_script/laptop_size/subject-5.csv","legacy","Interactive Ising","3.0.2","0","v","v","space","NA","733","733","2419","NA","2","legacy","1024","2","48000","-16","experiment","5","odd","NA","NA","57491","106533","52208","150674","150102","150639","151410","152399","NA","NA","106533","44037","148754","150137","NA","2399","NA","NA","151647","2399","152849","NA","108953","150099","150674","Stroop CI","17","67653","18","yes","1366","YELLOW"
"34","94.7368421053","yes","94.7368421053","23","3602","3602","#ffffff","no","practice","v;b;n;m","legacy","I have read and understood the information shown above","legacy","legacy","#ffef36","0","neutral","uniform","1","1","1","NA","0","0","0","0","0","15","15","15","15","15","0","0","5","0","15","15","0","0","NA","0","15","0","15","NA","0","15","15","12/06/16 16:11:46","The main experiment item","yes","m","W:\Sussex\Consciousness and control\Exp 1 - stroop suggestion and PCE\Methods\Palfi_script","no","mono","no","18","no","black","no","Ok","NA","no","Female","768","legacy","C:/Users/User/Dropbox/Sussex/Consciousness and control/Exp 1 - stroop suggestion and PCE/Methods/Palfi_script/laptop_size/subject-5.csv","legacy","Interactive Ising","3.0.2","0","m","m","space","NA","798","798","2419","NA","2","legacy","1024","2","48000","-16","experiment","5","odd","NA","NA","57491","106533","52208","153559","152987","153524","154360","155348","NA","NA","106533","44037","154596","153022","NA","2399","NA","NA","151647","2399","155799","NA","108953","152985","153559","Stroop CI","18","68451","19","yes","1366","LOT"
"17","95","yes","95","23","3471","3471","#ffffff","no","practice","v;b;n;m","legacy","I have read and understood the information shown above","legacy","legacy","blue","0","con","uniform","1","1","1","NA","0","0","0","0","0","16","16","16","16","16","0","0","5","0","16","16","0","0","NA","0","16","0","16","NA","0","16","16","12/06/16 16:11:46","The main experiment item","yes","b","W:\Sussex\Consciousness and control\Exp 1 - stroop suggestion and PCE\Methods\Palfi_script","no","mono","no","18","no","black","no","Ok","NA","no","Female","768","legacy","C:/Users/User/Dropbox/Sussex/Consciousness and control/Exp 1 - stroop suggestion and PCE/Methods/Palfi_script/laptop_size/subject-5.csv","legacy","Interactive Ising","3.0.2","0","b","b","space","NA","977","977","2419","NA","2","legacy","1024","2","48000","-16","experiment","5","odd","NA","NA","57491","106533","52208","156542","155970","156507","157522","158510","NA","NA","106533","44037","157758","156005","NA","2399","NA","NA","151647","2399","158960","NA","108953","155967","156542","Stroop CI","19","69428","20","yes","1366","BLUE"
"5","95.2380952381","yes","95.2380952381","23","3335","3335","#ffffff","no","practice","v;b;n;m","legacy","I have read and understood the information shown above","legacy","legacy","blue","0","inc","uniform","1","1","1","NA","0","0","0","0","0","17","17","17","17","17","0","0","5","0","17","17","0","0","NA","0","17","0","17","NA","0","17","17","12/06/16 16:11:46","The main experiment item","yes","b","W:\Sussex\Consciousness and control\Exp 1 - stroop suggestion and PCE\Methods\Palfi_script","no","mono","no","18","no","black","no","Ok","NA","no","Female","768","legacy","C:/Users/User/Dropbox/Sussex/Consciousness and control/Exp 1 - stroop suggestion and PCE/Methods/Palfi_script/laptop_size/subject-5.csv","legacy","Interactive Ising","3.0.2","0","b","b","space","NA","610","610","2419","NA","2","legacy","1024","2","48000","-16","experiment","5","odd","NA","NA","57491","106533","52208","159665","159092","159630","160277","161266","NA","NA","106533","44037","160514","159128","NA","2399","NA","NA","151647","2399","161716","NA","108953","159090","159665","Stroop CI","20","70038","21","yes","1366","GREEN"
"4","95.4545454545","yes","95.4545454545","23","3207","3207","#ffffff","no","practice","v;b;n;m","legacy","I have read and understood the information shown above","legacy","legacy","blue","0","inc","uniform","1","1","1","NA","0","0","0","0","0","18","18","18","18","18","0","0","5","0","18","18","0","0","NA","0","18","0","18","NA","0","18","18","12/06/16 16:11:46","The main experiment item","yes","b","W:\Sussex\Consciousness and control\Exp 1 - stroop suggestion and PCE\Methods\Palfi_script","no","mono","no","18","no","black","no","Ok","NA","no","Female","768","legacy","C:/Users/User/Dropbox/Sussex/Consciousness and control/Exp 1 - stroop suggestion and PCE/Methods/Palfi_script/laptop_size/subject-5.csv","legacy","Interactive Ising","3.0.2","0","b","b","space","NA","517","517","2419","NA","2","legacy","1024","2","48000","-16","experiment","5","odd","NA","NA","57491","106533","52208","162473","161900","162438","162994","163982","NA","NA","106533","44037","163230","161936","NA","2399","NA","NA","151647","2399","164432","NA","108953","161898","162473","Stroop CI","21","70555","22","yes","1366","RED"
"1","95.652173913","yes","95.652173913","23","3098","3098","#ffffff","no","practice","v;b;n;m","legacy","I have read and understood the information shown above","legacy","legacy","red","0","inc","uniform","1","1","1","NA","0","0","0","0","0","19","19","19","19","19","0","0","5","0","19","19","0","0","NA","0","19","0","19","NA","0","19","19","12/06/16 16:11:46","The main experiment item","yes","v","W:\Sussex\Consciousness and control\Exp 1 - stroop suggestion and PCE\Methods\Palfi_script","no","mono","no","18","no","black","no","Ok","NA","no","Female","768","legacy","C:/Users/User/Dropbox/Sussex/Consciousness and control/Exp 1 - stroop suggestion and PCE/Methods/Palfi_script/laptop_size/subject-5.csv","legacy","Interactive Ising","3.0.2","0","v","v","space","NA","709","709","2419","NA","2","legacy","1024","2","48000","-16","experiment","5","odd","NA","NA","57491","106533","52208","165154","164582","165119","165866","166856","NA","NA","106533","44037","166102","164617","NA","2399","NA","NA","151647","2399","167306","NA","108953","164580","165154","Stroop CI","22","71264","23","yes","1366","BLUE"
"10","95.8333333333","yes","95.8333333333","23","3001","3001","#ffffff","no","practice","v;b;n;m","legacy","I have read and understood the information shown above","legacy","legacy","#ffef36","0","inc","uniform","1","1","1","NA","0","0","0","0","0","20","20","20","20","20","0","0","5","0","20","20","0","0","NA","0","20","0","20","NA","0","20","20","12/06/16 16:11:46","The main experiment item","yes","m","W:\Sussex\Consciousness and control\Exp 1 - stroop suggestion and PCE\Methods\Palfi_script","no","mono","no","18","no","black","no","Ok","NA","no","Female","768","legacy","C:/Users/User/Dropbox/Sussex/Consciousness and control/Exp 1 - stroop suggestion and PCE/Methods/Palfi_script/laptop_size/subject-5.csv","legacy","Interactive Ising","3.0.2","0","m","m","space","NA","781","781","2419","NA","2","legacy","1024","2","48000","-16","experiment","5","odd","NA","NA","57491","106533","52208","168069","167497","168034","168853","169843","NA","NA","106533","44037","169091","167532","NA","2399","NA","NA","151647","2399","170293","NA","108953","167495","168069","Stroop CI","23","72045","24","yes","1366","RED"
"25","96","yes","96","23","2915","2915","#ffffff","no","practice","v;b;n;m","legacy","I have read and understood the information shown above","legacy","legacy","red","0","neutral","uniform","1","1","1","NA","0","0","0","0","0","21","21","21","21","21","0","0","5","0","21","21","0","0","NA","0","21","0","21","NA","0","21","21","12/06/16 16:11:46","The main experiment item","yes","v","W:\Sussex\Consciousness and control\Exp 1 - stroop suggestion and PCE\Methods\Palfi_script","no","mono","no","18","no","black","no","Ok","NA","no","Female","768","legacy","C:/Users/User/Dropbox/Sussex/Consciousness and control/Exp 1 - stroop suggestion and PCE/Methods/Palfi_script/laptop_size/subject-5.csv","legacy","Interactive Ising","3.0.2","0","v","v","space","NA","834","834","2419","NA","2","legacy","1024","2","48000","-16","experiment","5","odd","NA","NA","57491","106533","52208","171044","170472","171009","171881","172869","NA","NA","106533","44037","172117","170507","NA","2399","NA","NA","151647","2399","173319","NA","108953","170470","171044","Stroop CI","24","72879","25","yes","1366","SHIP"
"21","96.1538461538","yes","96.1538461538","23","2862","2862","#ffffff","no","practice","v;b;n;m","legacy","I have read and understood the information shown above","legacy","legacy","green","0","con","uniform","1","1","1","NA","0","0","0","0","0","22","22","22","22","22","0","0","5","0","22","22","0","0","NA","0","22","0","22","NA","0","22","22","12/06/16 16:11:46","The main experiment item","yes","n","W:\Sussex\Consciousness and control\Exp 1 - stroop suggestion and PCE\Methods\Palfi_script","no","mono","no","18","no","black","no","Ok","NA","no","Female","768","legacy","C:/Users/User/Dropbox/Sussex/Consciousness and control/Exp 1 - stroop suggestion and PCE/Methods/Palfi_script/laptop_size/subject-5.csv","legacy","Interactive Ising","3.0.2","0","n","n","space","NA","1557","1557","2419","NA","2","legacy","1024","2","48000","-16","experiment","5","odd","NA","NA","57491","106533","52208","174048","173476","174013","175607","176597","NA","NA","106533","44037","175844","173511","NA","2399","NA","NA","151647","2399","177047","NA","108953","173474","174048","Stroop CI","25","74436","26","yes","1366","GREEN"
"29","96.2962962963","yes","96.2962962963","23","2796","2796","#ffffff","no","practice","v;b;n;m","legacy","I have read and understood the information shown above","legacy","legacy","blue","0","neutral","uniform","1","1","1","NA","0","0","0","0","0","23","23","23","23","23","0","0","5","0","23","23","0","0","NA","0","23","0","23","NA","0","23","23","12/06/16 16:11:46","The main experiment item","yes","b","W:\Sussex\Consciousness and control\Exp 1 - stroop suggestion and PCE\Methods\Palfi_script","no","mono","no","18","no","black","no","Ok","NA","no","Female","768","legacy","C:/Users/User/Dropbox/Sussex/Consciousness and control/Exp 1 - stroop suggestion and PCE/Methods/Palfi_script/laptop_size/subject-5.csv","legacy","Interactive Ising","3.0.2","0","b","b","space","NA","1073","1073","2419","NA","2","legacy","1024","2","48000","-16","experiment","5","odd","NA","NA","57491","106533","52208","177767","177194","177732","178843","179831","NA","NA","106533","44037","179079","177229","NA","2399","NA","NA","151647","2399","180281","NA","108953","177191","177767","Stroop CI","26","75509","27","yes","1366","KNIFE"
"13","96.4285714286","yes","96.4285714286","23","2719","2719","#ffffff","no","practice","v;b;n;m","legacy","I have read and understood the information shown above","legacy","legacy","red","0","con","uniform","1","1","1","NA","0","0","0","0","0","24","24","24","24","24","0","0","5","0","24","24","0","0","NA","0","24","0","24","NA","0","24","24","12/06/16 16:11:46","The main experiment item","yes","v","W:\Sussex\Consciousness and control\Exp 1 - stroop suggestion and PCE\Methods\Palfi_script","no","mono","no","18","no","black","no","Ok","NA","no","Female","768","legacy","C:/Users/User/Dropbox/Sussex/Consciousness and control/Exp 1 - stroop suggestion and PCE/Methods/Palfi_script/laptop_size/subject-5.csv","legacy","Interactive Ising","3.0.2","0","v","v","space","NA","628","628","2419","NA","2","legacy","1024","2","48000","-16","experiment","5","odd","NA","NA","57491","106533","52208","181030","180457","180995","181662","182652","NA","NA","106533","44037","181900","180493","NA","2399","NA","NA","151647","2399","183102","NA","108953","180455","181030","Stroop CI","27","76137","28","yes","1366","RED"
"7","96.5517241379","yes","96.5517241379","23","2662","2662","#ffffff","no","practice","v;b;n;m","legacy","I have read and understood the information shown above","legacy","legacy","green","0","inc","uniform","1","1","1","NA","0","0","0","0","0","25","25","25","25","25","0","0","5","0","25","25","0","0","NA","0","25","0","25","NA","0","25","25","12/06/16 16:11:46","The main experiment item","yes","n","W:\Sussex\Consciousness and control\Exp 1 - stroop suggestion and PCE\Methods\Palfi_script","no","mono","no","18","no","black","no","Ok","NA","no","Female","768","legacy","C:/Users/User/Dropbox/Sussex/Consciousness and control/Exp 1 - stroop suggestion and PCE/Methods/Palfi_script/laptop_size/subject-5.csv","legacy","Interactive Ising","3.0.2","0","n","n","space","NA","1061","1061","2419","NA","2","legacy","1024","2","48000","-16","experiment","5","odd","NA","NA","57491","106533","52208","183835","183263","183800","184899","185889","NA","NA","106533","44037","185137","183298","NA","2399","NA","NA","151647","2399","186339","NA","108953","183261","183835","Stroop CI","28","77198","29","yes","1366","RED"
"30","96.6666666667","yes","96.6666666667","23","2611","2611","#ffffff","no","practice","v;b;n;m","legacy","I have read and understood the information shown above","legacy","legacy","blue","0","neutral","uniform","1","1","1","NA","0","0","0","0","0","26","26","26","26","26","0","0","5","0","26","26","0","0","NA","0","26","0","26","NA","0","26","26","12/06/16 16:11:46","The main experiment item","yes","b","W:\Sussex\Consciousness and control\Exp 1 - stroop suggestion and PCE\Methods\Palfi_script","no","mono","no","18","no","black","no","Ok","NA","no","Female","768","legacy","C:/Users/User/Dropbox/Sussex/Consciousness and control/Exp 1 - stroop suggestion and PCE/Methods/Palfi_script/laptop_size/subject-5.csv","legacy","Interactive Ising","3.0.2","0","b","b","space","NA","1138","1138","2419","NA","2","legacy","1024","2","48000","-16","experiment","5","odd","NA","NA","57491","106533","52208","187055","186483","187020","188196","189184","NA","NA","106533","44037","188432","186518","NA","2399","NA","NA","151647","2399","189634","NA","108953","186481","187055","Stroop CI","29","78336","30","yes","1366","FLOWER"
"19","96.7741935484","yes","96.7741935484","23","2554","2554","#ffffff","no","practice","v;b;n;m","legacy","I have read and understood the information shown above","legacy","legacy","green","0","con","uniform","1","1","1","NA","0","0","0","0","0","27","27","27","27","27","0","0","5","0","27","27","0","0","NA","0","27","0","27","NA","0","27","27","12/06/16 16:11:46","The main experiment item","yes","n","W:\Sussex\Consciousness and control\Exp 1 - stroop suggestion and PCE\Methods\Palfi_script","no","mono","no","18","no","black","no","Ok","NA","no","Female","768","legacy","C:/Users/User/Dropbox/Sussex/Consciousness and control/Exp 1 - stroop suggestion and PCE/Methods/Palfi_script/laptop_size/subject-5.csv","legacy","Interactive Ising","3.0.2","0","n","n","space","NA","845","845","2419","NA","2","legacy","1024","2","48000","-16","experiment","5","odd","NA","NA","57491","106533","52208","190362","189790","190327","191210","192199","NA","NA","106533","44037","191446","189825","NA","2399","NA","NA","151647","2399","192649","NA","108953","189787","190362","Stroop CI","30","79181","31","yes","1366","GREEN"
"31","96.875","yes","96.875","23","2492","2492","#ffffff","no","practice","v;b;n;m","legacy","I have read and understood the information shown above","legacy","legacy","green","0","neutral","uniform","1","1","1","NA","0","0","0","0","0","28","28","28","28","28","0","0","5","0","28","28","0","0","NA","0","28","0","28","NA","0","28","28","12/06/16 16:11:46","The main experiment item","yes","n","W:\Sussex\Consciousness and control\Exp 1 - stroop suggestion and PCE\Methods\Palfi_script","no","mono","no","18","no","black","no","Ok","NA","no","Female","768","legacy","C:/Users/User/Dropbox/Sussex/Consciousness and control/Exp 1 - stroop suggestion and PCE/Methods/Palfi_script/laptop_size/subject-5.csv","legacy","Interactive Ising","3.0.2","0","n","n","space","NA","590","590","2419","NA","2","legacy","1024","2","48000","-16","experiment","5","odd","NA","NA","57491","106533","52208","193376","192804","193341","193969","194957","NA","NA","106533","44037","194205","192839","NA","2399","NA","NA","151647","2399","195407","NA","108953","192801","193376","Stroop CI","31","79771","32","yes","1366","LOT"
"35","96.9696969697","yes","96.9696969697","23","2437","2437","#ffffff","no","practice","v;b;n;m","legacy","I have read and understood the information shown above","legacy","legacy","#ffef36","0","neutral","uniform","1","1","1","NA","0","0","0","0","0","29","29","29","29","29","0","0","5","0","29","29","0","0","NA","0","29","0","29","NA","0","29","29","12/06/16 16:11:46","The main experiment item","yes","m","W:\Sussex\Consciousness and control\Exp 1 - stroop suggestion and PCE\Methods\Palfi_script","no","mono","no","18","no","black","no","Ok","NA","no","Female","768","legacy","C:/Users/User/Dropbox/Sussex/Consciousness and control/Exp 1 - stroop suggestion and PCE/Methods/Palfi_script/laptop_size/subject-5.csv","legacy","Interactive Ising","3.0.2","0","m","m","space","NA","669","669","2419","NA","2","legacy","1024","2","48000","-16","experiment","5","odd","NA","NA","57491","106533","52208","196110","195538","196075","196782","197772","NA","NA","106533","44037","197020","195573","NA","2399","NA","NA","151647","2399","198223","NA","108953","195536","196110","Stroop CI","32","80440","33","yes","1366","SHIP"
"8","94.1176470588","yes","94.1176470588","23","2406","2406","#ffffff","no","practice","v;b;n;m","legacy","I have read and understood the information shown above","legacy","legacy","green","0","inc","uniform","0","0","1","NA","0","0","0","0","0","30","30","30","30","30","0","0","5","0","30","30","0","0","NA","0","30","0","30","NA","0","30","30","12/06/16 16:11:46","The main experiment item","yes","n","W:\Sussex\Consciousness and control\Exp 1 - stroop suggestion and PCE\Methods\Palfi_script","no","mono","no","18","no","black","no","Ok","NA","no","Female","768","legacy","C:/Users/User/Dropbox/Sussex/Consciousness and control/Exp 1 - stroop suggestion and PCE/Methods/Palfi_script/laptop_size/subject-5.csv","legacy","Interactive Ising","3.0.2","0","b","b","space","NA","1391","1391","2419","NA","2","legacy","1024","2","48000","-16","experiment","5","odd","NA","NA","57491","106533","52208","199149","198577","199114","200543","201531","NA","NA","106533","44037","197020","198612","NA","2399","NA","NA","200779","2399","201981","NA","108953","198575","199149","Stroop CI","32","81831","34","yes","1366","BLUE"
"23","94.2857142857","yes","94.2857142857","23","2378","2378","#ffffff","no","practice","v;b;n;m","legacy","I have read and understood the information shown above","legacy","legacy","#ffef36","0","con","uniform","1","1","1","NA","0","0","0","0","0","31","31","31","31","31","0","0","5","0","31","31","0","0","NA","0","31","0","31","NA","0","31","31","12/06/16 16:11:46","The main experiment item","yes","m","W:\Sussex\Consciousness and control\Exp 1 - stroop suggestion and PCE\Methods\Palfi_script","no","mono","no","18","no","black","no","Ok","NA","no","Female","768","legacy","C:/Users/User/Dropbox/Sussex/Consciousness and control/Exp 1 - stroop suggestion and PCE/Methods/Palfi_script/laptop_size/subject-5.csv","legacy","Interactive Ising","3.0.2","0","m","m","space","NA","1403","1403","2419","NA","2","legacy","1024","2","48000","-16","experiment","5","odd","NA","NA","57491","106533","52208","202694","202122","202659","204100","205091","NA","NA","106533","44037","204338","202157","NA","2399","NA","NA","200779","2399","205542","NA","108953","202119","202694","Stroop CI","33","83234","35","yes","1366","YELLOW"
"36","91.6666666667","yes","91.6666666667","23","2340","2340","#ffffff","no","practice","v;b;n;m","legacy","I have read and understood the information shown above","legacy","legacy","#ffef36","0","neutral","uniform","0","0","1","NA","0","0","0","0","0","32","32","32","32","32","0","0","5","0","32","32","0","0","NA","0","32","0","32","NA","0","32","32","12/06/16 16:11:46","The main experiment item","yes","m","W:\Sussex\Consciousness and control\Exp 1 - stroop suggestion and PCE\Methods\Palfi_script","no","mono","no","18","no","black","no","Ok","NA","no","Female","768","legacy","C:/Users/User/Dropbox/Sussex/Consciousness and control/Exp 1 - stroop suggestion and PCE/Methods/Palfi_script/laptop_size/subject-5.csv","legacy","Interactive Ising","3.0.2","0","n","n","space","NA","1029","1029","2419","NA","2","legacy","1024","2","48000","-16","experiment","5","odd","NA","NA","57491","106533","52208","206306","205734","206271","207337","208328","NA","NA","106533","44037","204338","205769","NA","2399","NA","NA","207576","2399","208778","NA","108953","205732","206306","Stroop CI","33","84263","36","yes","1366","KNIFE"
"6","91.8918918919","yes","91.8918918919","23","2300","2300","#ffffff","no","practice","v;b;n;m","legacy","I have read and understood the information shown above","legacy","legacy","blue","0","inc","uniform","1","1","1","NA","0","0","0","0","0","33","33","33","33","33","0","0","5","0","33","33","0","0","NA","0","33","0","33","NA","0","33","33","12/06/16 16:11:46","The main experiment item","yes","b","W:\Sussex\Consciousness and control\Exp 1 - stroop suggestion and PCE\Methods\Palfi_script","no","mono","no","18","no","black","no","Ok","NA","no","Female","768","legacy","C:/Users/User/Dropbox/Sussex/Consciousness and control/Exp 1 - stroop suggestion and PCE/Methods/Palfi_script/laptop_size/subject-5.csv","legacy","Interactive Ising","3.0.2","0","b","b","space","NA","847","847","2419","NA","2","legacy","1024","2","48000","-16","experiment","5","odd","NA","NA","57491","106533","52208","209488","208913","209453","210337","211327","NA","NA","106533","44037","210574","208949","NA","2399","NA","NA","207576","2399","211779","NA","108953","208911","209488","Stroop CI","34","85110","37","yes","1366","YELLOW"
"14","92.1052631579","yes","92.1052631579","23","2258","2258","#ffffff","no","practice","v;b;n;m","legacy","I have read and understood the information shown above","legacy","legacy","red","0","con","uniform","1","1","1","NA","0","0","0","0","0","34","34","34","34","34","0","0","5","0","34","34","0","0","NA","0","34","0","34","NA","0","34","34","12/06/16 16:11:46","The main experiment item","yes","v","W:\Sussex\Consciousness and control\Exp 1 - stroop suggestion and PCE\Methods\Palfi_script","no","mono","no","18","no","black","no","Ok","NA","no","Female","768","legacy","C:/Users/User/Dropbox/Sussex/Consciousness and control/Exp 1 - stroop suggestion and PCE/Methods/Palfi_script/laptop_size/subject-5.csv","legacy","Interactive Ising","3.0.2","0","v","v","space","NA","709","709","2419","NA","2","legacy","1024","2","48000","-16","experiment","5","odd","NA","NA","57491","106533","52208","212506","211934","212471","213218","214206","NA","NA","106533","44037","213454","211969","NA","2399","NA","NA","207576","2399","214656","NA","108953","211932","212506","Stroop CI","35","85819","38","yes","1366","RED"
"12","92.3076923077","yes","92.3076923077","23","2244","2244","#ffffff","no","practice","v;b;n;m","legacy","I have read and understood the information shown above","legacy","legacy","#ffef36","0","inc","uniform","1","1","1","NA","0","0","0","0","0","35","35","35","35","35","0","0","5","0","35","35","0","0","NA","0","35","0","35","NA","0","35","35","12/06/16 16:11:46","The main experiment item","yes","m","W:\Sussex\Consciousness and control\Exp 1 - stroop suggestion and PCE\Methods\Palfi_script","no","mono","no","18","no","black","no","Ok","NA","no","Female","768","legacy","C:/Users/User/Dropbox/Sussex/Consciousness and control/Exp 1 - stroop suggestion and PCE/Methods/Palfi_script/laptop_size/subject-5.csv","legacy","Interactive Ising","3.0.2","0","m","m","space","NA","1732","1732","2419","NA","2","legacy","1024","2","48000","-16","experiment","5","odd","NA","NA","57491","106533","52208","215379","214807","215344","217114","218102","NA","NA","106533","44037","217350","214842","NA","2399","NA","NA","207576","2399","218552","NA","108953","214805","215379","Stroop CI","36","87551","39","yes","1366","GREEN"
"88","92.6829268293","yes","92.6829268293","23","2290","2290","#ffffff","no","C","v;b;n;m","legacy","I have read and understood the information shown above","legacy","legacy","green","0","con","uniform","1","1","1","NA","0","0","0","0","0","36","36","36","36","36","0","0","5","0","36","36","0","0","NA","0","36","0","36","NA","0","36","36","12/06/16 16:11:46","The main experiment item","yes","n","W:\Sussex\Consciousness and control\Exp 1 - stroop suggestion and PCE\Methods\Palfi_script","no","mono","no","18","no","black","no","Ok","NA","no","Female","768","legacy","C:/Users/User/Dropbox/Sussex/Consciousness and control/Exp 1 - stroop suggestion and PCE/Methods/Palfi_script/laptop_size/subject-5.csv","legacy","Interactive Ising","3.0.2","0","n","n","space","NA","1216","1216","5133","NA","2","legacy","1024","2","48000","-16","experiment","5","odd","223729","NA","57491","106533","52208","224403","223831","224368","225622","226611","218596","NA","218596","44037","225858","223866","NA","2399","NA","NA","207576","2399","227061","NA","108953","223829","224403","Stroop CI","38","93900","41","yes","1366","GREEN"
"3","92.8571428571","yes","92.8571428571","23","2251","2251","#ffffff","no","C","v;b;n;m","legacy","I have read and understood the information shown above","legacy","legacy","red","0","inc","uniform","1","1","1","NA","0","0","0","0","0","37","37","37","37","37","0","0","5","0","37","37","0","0","NA","0","37","0","37","NA","0","37","37","12/06/16 16:11:46","The main experiment item","yes","v","W:\Sussex\Consciousness and control\Exp 1 - stroop suggestion and PCE\Methods\Palfi_script","no","mono","no","18","no","black","no","Ok","NA","no","Female","768","legacy","C:/Users/User/Dropbox/Sussex/Consciousness and control/Exp 1 - stroop suggestion and PCE/Methods/Palfi_script/laptop_size/subject-5.csv","legacy","Interactive Ising","3.0.2","0","v","v","space","NA","674","674","5133","NA","2","legacy","1024","2","48000","-16","experiment","5","odd","223729","NA","57491","106533","52208","227821","227249","227786","228498","229486","218596","NA","218596","44037","228734","227284","NA","2399","NA","NA","207576","2399","229936","NA","108953","227246","227821","Stroop CI","39","94574","42","yes","1366","GREEN"
"85","93.023255814","yes","93.023255814","23","2220","2220","#ffffff","no","C","v;b;n;m","legacy","I have read and understood the information shown above","legacy","legacy","green","0","con","uniform","1","1","1","NA","0","0","0","0","0","38","38","38","38","38","0","0","5","0","38","38","0","0","NA","0","38","0","38","NA","0","38","38","12/06/16 16:11:46","The main experiment item","yes","n","W:\Sussex\Consciousness and control\Exp 1 - stroop suggestion and PCE\Methods\Palfi_script","no","mono","no","18","no","black","no","Ok","NA","no","Female","768","legacy","C:/Users/User/Dropbox/Sussex/Consciousness and control/Exp 1 - stroop suggestion and PCE/Methods/Palfi_script/laptop_size/subject-5.csv","legacy","Interactive Ising","3.0.2","0","n","n","space","NA","895","895","5133","NA","2","legacy","1024","2","48000","-16","experiment","5","odd","223729","NA","57491","106533","52208","230653","230081","230618","231551","232540","218596","NA","218596","44037","231788","230116","NA","2399","NA","NA","207576","2399","232990","NA","108953","230078","230653","Stroop CI","40","95469","43","yes","1366","GREEN"
"67","93.1818181818","yes","93.1818181818","23","2190","2190","#ffffff","no","C","v;b;n;m","legacy","I have read and understood the information shown above","legacy","legacy","blue","0","con","uniform","1","1","1","NA","0","0","0","0","0","39","39","39","39","39","0","0","5","0","39","39","0","0","NA","0","39","0","39","NA","0","39","39","12/06/16 16:11:46","The main experiment item","yes","b","W:\Sussex\Consciousness and control\Exp 1 - stroop suggestion and PCE\Methods\Palfi_script","no","mono","no","18","no","black","no","Ok","NA","no","Female","768","legacy","C:/Users/User/Dropbox/Sussex/Consciousness and control/Exp 1 - stroop suggestion and PCE/Methods/Palfi_script/laptop_size/subject-5.csv","legacy","Interactive Ising","3.0.2","0","b","b","space","NA","931","931","5133","NA","2","legacy","1024","2","48000","-16","experiment","5","odd","223729","NA","57491","106533","52208","233705","233132","233669","234639","235627","218596","NA","218596","44037","234875","233167","NA","2399","NA","NA","207576","2399","236077","NA","108953","233129","233704","Stroop CI","41","96400","44","yes","1366","BLUE"
"103","93.3333333333","yes","93.3333333333","23","2163","2163","#ffffff","no","C","v;b;n;m","legacy","I have read and understood the information shown above","legacy","legacy","#ffef36","0","con","uniform","1","1","1","NA","0","0","0","0","0","40","40","40","40","40","0","0","5","0","40","40","0","0","NA","0","40","0","40","NA","0","40","40","12/06/16 16:11:46","The main experiment item","yes","m","W:\Sussex\Consciousness and control\Exp 1 - stroop suggestion and PCE\Methods\Palfi_script","no","mono","no","18","no","black","no","Ok","NA","no","Female","768","legacy","C:/Users/User/Dropbox/Sussex/Consciousness and control/Exp 1 - stroop suggestion and PCE/Methods/Palfi_script/laptop_size/subject-5.csv","legacy","Interactive Ising","3.0.2","0","m","m","space","NA","955","955","5133","NA","2","legacy","1024","2","48000","-16","experiment","5","odd","223729","NA","57491","106533","52208","236782","236209","236747","237740","238730","218596","NA","218596","44037","237976","236245","NA","2399","NA","NA","207576","2399","239180","NA","108953","236207","236782","Stroop CI","42","97355","45","yes","1366","YELLOW"
"31","93.4782608696","yes","93.4782608696","23","2129","2129","#ffffff","no","C","v;b;n;m","legacy","I have read and understood the information shown above","legacy","legacy","red","0","con","uniform","1","1","1","NA","0","0","0","0","0","41","41","41","41","41","0","0","5","0","41","41","0","0","NA","0","41","0","41","NA","0","41","41","12/06/16 16:11:46","The main experiment item","yes","v","W:\Sussex\Consciousness and control\Exp 1 - stroop suggestion and PCE\Methods\Palfi_script","no","mono","no","18","no","black","no","Ok","NA","no","Female","768","legacy","C:/Users/User/Dropbox/Sussex/Consciousness and control/Exp 1 - stroop suggestion and PCE/Methods/Palfi_script/laptop_size/subject-5.csv","legacy","Interactive Ising","3.0.2","0","v","v","space","NA","618","618","5133","NA","2","legacy","1024","2","48000","-16","experiment","5","odd","223729","NA","57491","106533","52208","239949","239377","239914","240570","241559","218596","NA","218596","44037","240807","239412","NA","2399","NA","NA","207576","2399","242009","NA","108953","239375","239949","Stroop CI","43","97973","46","yes","1366","RED"
"114","93.6170212766","yes","93.6170212766","23","2102","2102","#ffffff","no","C","v;b;n;m","legacy","I have read and understood the information shown above","legacy","legacy","#ffef36","0","con","uniform","1","1","1","NA","0","0","0","0","0","42","42","42","42","42","0","0","5","0","42","42","0","0","NA","0","42","0","42","NA","0","42","42","12/06/16 16:11:46","The main experiment item","yes","m","W:\Sussex\Consciousness and control\Exp 1 - stroop suggestion and PCE\Methods\Palfi_script","no","mono","no","18","no","black","no","Ok","NA","no","Female","768","legacy","C:/Users/User/Dropbox/Sussex/Consciousness and control/Exp 1 - stroop suggestion and PCE/Methods/Palfi_script/laptop_size/subject-5.csv","legacy","Interactive Ising","3.0.2","0","m","m","space","NA","821","821","5133","NA","2","legacy","1024","2","48000","-16","experiment","5","odd","223729","NA","57491","106533","52208","242791","242219","242756","243615","244604","218596","NA","218596","44037","243852","242254","NA","2399","NA","NA","207576","2399","245054","NA","108953","242216","242791","Stroop CI","44","98794","47","yes","1366","YELLOW"
"55","93.75","yes","93.75","23","2081","2081","#ffffff","no","C","v;b;n;m","legacy","I have read and understood the information shown above","legacy","legacy","blue","0","con","uniform","1","1","1","NA","0","0","0","0","0","43","43","43","43","43","0","0","5","0","43","43","0","0","NA","0","43","0","43","NA","0","43","43","12/06/16 16:11:46","The main experiment item","yes","b","W:\Sussex\Consciousness and control\Exp 1 - stroop suggestion and PCE\Methods\Palfi_script","no","mono","no","18","no","black","no","Ok","NA","no","Female","768","legacy","C:/Users/User/Dropbox/Sussex/Consciousness and control/Exp 1 - stroop suggestion and PCE/Methods/Palfi_script/laptop_size/subject-5.csv","legacy","Interactive Ising","3.0.2","0","b","b","space","NA","1097","1097","5133","NA","2","legacy","1024","2","48000","-16","experiment","5","odd","223729","NA","57491","106533","52208","245824","245252","245789","246924","247914","218596","NA","218596","44037","247160","245287","NA","2399","NA","NA","207576","2399","248365","NA","108953","245250","245824","Stroop CI","45","99891","48","yes","1366","BLUE"
"75","93.8775510204","yes","93.8775510204","23","2060","2060","#ffffff","no","C","v;b;n;m","legacy","I have read and understood the information shown above","legacy","legacy","green","0","con","uniform","1","1","1","NA","0","0","0","0","0","44","44","44","44","44","0","0","5","0","44","44","0","0","NA","0","44","0","44","NA","0","44","44","12/06/16 16:11:46","The main experiment item","yes","n","W:\Sussex\Consciousness and control\Exp 1 - stroop suggestion and PCE\Methods\Palfi_script","no","mono","no","18","no","black","no","Ok","NA","no","Female","768","legacy","C:/Users/User/Dropbox/Sussex/Consciousness and control/Exp 1 - stroop suggestion and PCE/Methods/Palfi_script/laptop_size/subject-5.csv","legacy","Interactive Ising","3.0.2","0","n","n","space","NA","1061","1061","5133","NA","2","legacy","1024","2","48000","-16","experiment","5","odd","223729","NA","57491","106533","52208","249074","248502","249039","250138","251126","218596","NA","218596","44037","250374","248537","NA","2399","NA","NA","207576","2399","251576","NA","108953","248500","249074","Stroop CI","46","100952","49","yes","1366","GREEN"
"61","94","yes","94","23","2041","2041","#ffffff","no","C","v;b;n;m","legacy","I have read and understood the information shown above","legacy","legacy","blue","0","con","uniform","1","1","1","NA","0","0","0","0","0","45","45","45","45","45","0","0","5","0","45","45","0","0","NA","0","45","0","45","NA","0","45","45","12/06/16 16:11:46","The main experiment item","yes","b","W:\Sussex\Consciousness and control\Exp 1 - stroop suggestion and PCE\Methods\Palfi_script","no","mono","no","18","no","black","no","Ok","NA","no","Female","768","legacy","C:/Users/User/Dropbox/Sussex/Consciousness and control/Exp 1 - stroop suggestion and PCE/Methods/Palfi_script/laptop_size/subject-5.csv","legacy","Interactive Ising","3.0.2","0","b","b","space","NA","1125","1125","5133","NA","2","legacy","1024","2","48000","-16","experiment","5","odd","223729","NA","57491","106533","52208","252273","251701","252238","253401","254390","218596","NA","218596","44037","253638","251736","NA","2399","NA","NA","207576","2399","254840","NA","108953","251698","252273","Stroop CI","47","102077","50","yes","1366","BLUE"
"100","94.1176470588","yes","94.1176470588","23","2017","2017","#ffffff","no","C","v;b;n;m","legacy","I have read and understood the information shown above","legacy","legacy","#ffef36","0","con","uniform","1","1","1","NA","0","0","0","0","0","46","46","46","46","46","0","0","5","0","46","46","0","0","NA","0","46","0","46","NA","0","46","46","12/06/16 16:11:46","The main experiment item","yes","m","W:\Sussex\Consciousness and control\Exp 1 - stroop suggestion and PCE\Methods\Palfi_script","no","mono","no","18","no","black","no","Ok","NA","no","Female","768","legacy","C:/Users/User/Dropbox/Sussex/Consciousness and control/Exp 1 - stroop suggestion and PCE/Methods/Palfi_script/laptop_size/subject-5.csv","legacy","Interactive Ising","3.0.2","0","m","m","space","NA","806","806","5133","NA","2","legacy","1024","2","48000","-16","experiment","5","odd","223729","NA","57491","106533","52208","255561","254989","255526","256370","257360","218596","NA","218596","44037","256606","255024","NA","2399","NA","NA","207576","2399","257810","NA","108953","254987","255561","Stroop CI","48","102883","51","yes","1366","YELLOW"
"62","94.2307692308","yes","94.2307692308","23","1993","1993","#ffffff","no","C","v;b;n;m","legacy","I have read and understood the information shown above","legacy","legacy","blue","0","con","uniform","1","1","1","NA","0","0","0","0","0","47","47","47","47","47","0","0","5","0","47","47","0","0","NA","0","47","0","47","NA","0","47","47","12/06/16 16:11:46","The main experiment item","yes","b","W:\Sussex\Consciousness and control\Exp 1 - stroop suggestion and PCE\Methods\Palfi_script","no","mono","no","18","no","black","no","Ok","NA","no","Female","768","legacy","C:/Users/User/Dropbox/Sussex/Consciousness and control/Exp 1 - stroop suggestion and PCE/Methods/Palfi_script/laptop_size/subject-5.csv","legacy","Interactive Ising","3.0.2","0","b","b","space","NA","787","787","5133","NA","2","legacy","1024","2","48000","-16","experiment","5","odd","223729","NA","57491","106533","52208","258525","257953","258490","259315","260303","218596","NA","218596","44037","259551","257988","NA","2399","NA","NA","207576","2399","260753","NA","108953","257950","258525","Stroop CI","49","103670","52","yes","1366","BLUE"
"56","94.3396226415","yes","94.3396226415","23","1965","1965","#ffffff","no","C","v;b;n;m","legacy","I have read and understood the information shown above","legacy","legacy","blue","0","con","uniform","1","1","1","NA","0","0","0","0","0","48","48","48","48","48","0","0","5","0","48","48","0","0","NA","0","48","0","48","NA","0","48","48","12/06/16 16:11:46","The main experiment item","yes","b","W:\Sussex\Consciousness and control\Exp 1 - stroop suggestion and PCE\Methods\Palfi_script","no","mono","no","18","no","black","no","Ok","NA","no","Female","768","legacy","C:/Users/User/Dropbox/Sussex/Consciousness and control/Exp 1 - stroop suggestion and PCE/Methods/Palfi_script/laptop_size/subject-5.csv","legacy","Interactive Ising","3.0.2","0","b","b","space","NA","524","524","5133","NA","2","legacy","1024","2","48000","-16","experiment","5","odd","223729","NA","57491","106533","52208","261512","260940","261477","262039","263029","218596","NA","218596","44037","262276","260975","NA","2399","NA","NA","207576","2399","263479","NA","108953","260938","261512","Stroop CI","50","104194","53","yes","1366","BLUE"
"112","94.4444444444","yes","94.4444444444","23","1942","1942","#ffffff","no","C","v;b;n;m","legacy","I have read and understood the information shown above","legacy","legacy","#ffef36","0","con","uniform","1","1","1","NA","0","0","0","0","0","49","49","49","49","49","0","0","5","0","49","49","0","0","NA","0","49","0","49","NA","0","49","49","12/06/16 16:11:46","The main experiment item","yes","m","W:\Sussex\Consciousness and control\Exp 1 - stroop suggestion and PCE\Methods\Palfi_script","no","mono","no","18","no","black","no","Ok","NA","no","Female","768","legacy","C:/Users/User/Dropbox/Sussex/Consciousness and control/Exp 1 - stroop suggestion and PCE/Methods/Palfi_script/laptop_size/subject-5.csv","legacy","Interactive Ising","3.0.2","0","m","m","space","NA","716","716","5133","NA","2","legacy","1024","2","48000","-16","experiment","5","odd","223729","NA","57491","106533","52208","264282","263710","264247","265001","265991","218596","NA","218596","44037","265239","263745","NA","2399","NA","NA","207576","2399","266441","NA","108953","263707","264282","Stroop CI","51","104910","54","yes","1366","YELLOW"
"30","94.5454545455","yes","94.5454545455","23","1919","1919","#ffffff","no","C","v;b;n;m","legacy","I have read and understood the information shown above","legacy","legacy","red","0","con","uniform","1","1","1","NA","0","0","0","0","0","50","50","50","50","50","0","0","5","0","50","50","0","0","NA","0","50","0","50","NA","0","50","50","12/06/16 16:11:46","The main experiment item","yes","v","W:\Sussex\Consciousness and control\Exp 1 - stroop suggestion and PCE\Methods\Palfi_script","no","mono","no","18","no","black","no","Ok","NA","no","Female","768","legacy","C:/Users/User/Dropbox/Sussex/Consciousness and control/Exp 1 - stroop suggestion and PCE/Methods/Palfi_script/laptop_size/subject-5.csv","legacy","Interactive Ising","3.0.2","0","v","v","space","NA","662","662","5133","NA","2","legacy","1024","2","48000","-16","experiment","5","odd","223729","NA","57491","106533","52208","267150","266576","267115","267815","268805","218596","NA","218596","44037","268051","266611","NA","2399","NA","NA","207576","2399","269255","NA","108953","266573","267150","Stroop CI","52","105572","55","yes","1366","RED"
"91","94.6428571429","yes","94.6428571429","23","1905","1905","#ffffff","no","C","v;b;n;m","legacy","I have read and understood the information shown above","legacy","legacy","green","0","con","uniform","1","1","1","NA","0","0","0","0","0","51","51","51","51","51","0","0","5","0","51","51","0","0","NA","0","51","0","51","NA","0","51","51","12/06/16 16:11:46","The main experiment item","yes","n","W:\Sussex\Consciousness and control\Exp 1 - stroop suggestion and PCE\Methods\Palfi_script","no","mono","no","18","no","black","no","Ok","NA","no","Female","768","legacy","C:/Users/User/Dropbox/Sussex/Consciousness and control/Exp 1 - stroop suggestion and PCE/Methods/Palfi_script/laptop_size/subject-5.csv","legacy","Interactive Ising","3.0.2","0","n","n","space","NA","1150","1150","5133","NA","2","legacy","1024","2","48000","-16","experiment","5","odd","223729","NA","57491","106533","52208","270041","269469","270006","271194","272182","218596","NA","218596","44037","271430","269504","NA","2399","NA","NA","207576","2399","272632","NA","108953","269467","270041","Stroop CI","53","106722","56","yes","1366","GREEN"
"80","94.7368421053","yes","94.7368421053","23","1880","1880","#ffffff","no","C","v;b;n;m","legacy","I have read and understood the information shown above","legacy","legacy","green","0","con","uniform","1","1","1","NA","0","0","0","0","0","52","52","52","52","52","0","0","5","0","52","52","0","0","NA","0","52","0","52","NA","0","52","52","12/06/16 16:11:46","The main experiment item","yes","n","W:\Sussex\Consciousness and control\Exp 1 - stroop suggestion and PCE\Methods\Palfi_script","no","mono","no","18","no","black","no","Ok","NA","no","Female","768","legacy","C:/Users/User/Dropbox/Sussex/Consciousness and control/Exp 1 - stroop suggestion and PCE/Methods/Palfi_script/laptop_size/subject-5.csv","legacy","Interactive Ising","3.0.2","0","n","n","space","NA","465","465","5133","NA","2","legacy","1024","2","48000","-16","experiment","5","odd","223729","NA","57491","106533","52208","273353","272780","273318","273820","274810","218596","NA","218596","44037","274057","272816","NA","2399","NA","NA","207576","2399","275260","NA","108953","272778","273353","Stroop CI","54","107187","57","yes","1366","GREEN"
"90","94.8275862069","yes","94.8275862069","23","1856","1856","#ffffff","no","C","v;b;n;m","legacy","I have read and understood the information shown above","legacy","legacy","green","0","con","uniform","1","1","1","NA","0","0","0","0","0","53","53","53","53","53","0","0","5","0","53","53","0","0","NA","0","53","0","53","NA","0","53","53","12/06/16 16:11:46","The main experiment item","yes","n","W:\Sussex\Consciousness and control\Exp 1 - stroop suggestion and PCE\Methods\Palfi_script","no","mono","no","18","no","black","no","Ok","NA","no","Female","768","legacy","C:/Users/User/Dropbox/Sussex/Consciousness and control/Exp 1 - stroop suggestion and PCE/Methods/Palfi_script/laptop_size/subject-5.csv","legacy","Interactive Ising","3.0.2","0","n","n","space","NA","478","478","5133","NA","2","legacy","1024","2","48000","-16","experiment","5","odd","223729","NA","57491","106533","52208","276010","275438","275975","276491","277480","218596","NA","218596","44037","276728","275473","NA","2399","NA","NA","207576","2399","277930","NA","108953","275435","276010","Stroop CI","55","107665","58","yes","1366","GREEN"
"52","94.9152542373","yes","94.9152542373","23","1836","1836","#ffffff","no","C","v;b;n;m","legacy","I have read and understood the information shown above","legacy","legacy","blue","0","con","uniform","1","1","1","NA","0","0","0","0","0","54","54","54","54","54","0","0","5","0","54","54","0","0","NA","0","54","0","54","NA","0","54","54","12/06/16 16:11:46","The main experiment item","yes","b","W:\Sussex\Consciousness and control\Exp 1 - stroop suggestion and PCE\Methods\Palfi_script","no","mono","no","18","no","black","no","Ok","NA","no","Female","768","legacy","C:/Users/User/Dropbox/Sussex/Consciousness and control/Exp 1 - stroop suggestion and PCE/Methods/Palfi_script/laptop_size/subject-5.csv","legacy","Interactive Ising","3.0.2","0","b","b","space","NA","678","678","5133","NA","2","legacy","1024","2","48000","-16","experiment","5","odd","223729","NA","57491","106533","52208","278639","278066","278604","279322","280310","218596","NA","218596","44037","279558","278102","NA","2399","NA","NA","207576","2399","280760","NA","108953","278064","278639","Stroop CI","56","108343","59","yes","1366","BLUE"
"65","95","yes","95","23","1814","1814","#ffffff","no","C","v;b;n;m","legacy","I have read and understood the information shown above","legacy","legacy","blue","0","con","uniform","1","1","1","NA","0","0","0","0","0","55","55","55","55","55","0","0","5","0","55","55","0","0","NA","0","55","0","55","NA","0","55","55","12/06/16 16:11:46","The main experiment item","yes","b","W:\Sussex\Consciousness and control\Exp 1 - stroop suggestion and PCE\Methods\Palfi_script","no","mono","no","18","no","black","no","Ok","NA","no","Female","768","legacy","C:/Users/User/Dropbox/Sussex/Consciousness and control/Exp 1 - stroop suggestion and PCE/Methods/Palfi_script/laptop_size/subject-5.csv","legacy","Interactive Ising","3.0.2","0","b","b","space","NA","522","522","5133","NA","2","legacy","1024","2","48000","-16","experiment","5","odd","223729","NA","57491","106533","52208","281463","280891","281428","281988","282976","218596","NA","218596","44037","282224","280926","NA","2399","NA","NA","207576","2399","283426","NA","108953","280889","281463","Stroop CI","57","108865","60","yes","1366","BLUE"
"106","95.0819672131","yes","95.0819672131","23","1798","1798","#ffffff","no","C","v;b;n;m","legacy","I have read and understood the information shown above","legacy","legacy","#ffef36","0","con","uniform","1","1","1","NA","0","0","0","0","0","56","56","56","56","56","0","0","5","0","56","56","0","0","NA","0","56","0","56","NA","0","56","56","12/06/16 16:11:46","The main experiment item","yes","m","W:\Sussex\Consciousness and control\Exp 1 - stroop suggestion and PCE\Methods\Palfi_script","no","mono","no","18","no","black","no","Ok","NA","no","Female","768","legacy","C:/Users/User/Dropbox/Sussex/Consciousness and control/Exp 1 - stroop suggestion and PCE/Methods/Palfi_script/laptop_size/subject-5.csv","legacy","Interactive Ising","3.0.2","0","m","m","space","NA","824","824","5133","NA","2","legacy","1024","2","48000","-16","experiment","5","odd","223729","NA","57491","106533","52208","284147","283575","284112","284974","285964","218596","NA","218596","44037","285210","283610","NA","2399","NA","NA","207576","2399","286414","NA","108953","283572","284147","Stroop CI","58","109689","61","yes","1366","YELLOW"
"46","95.1612903226","yes","95.1612903226","23","1780","1780","#ffffff","no","C","v;b;n;m","legacy","I have read and understood the information shown above","legacy","legacy","red","0","con","uniform","1","1","1","NA","0","0","0","0","0","57","57","57","57","57","0","0","5","0","57","57","0","0","NA","0","57","0","57","NA","0","57","57","12/06/16 16:11:46","The main experiment item","yes","v","W:\Sussex\Consciousness and control\Exp 1 - stroop suggestion and PCE\Methods\Palfi_script","no","mono","no","18","no","black","no","Ok","NA","no","Female","768","legacy","C:/Users/User/Dropbox/Sussex/Consciousness and control/Exp 1 - stroop suggestion and PCE/Methods/Palfi_script/laptop_size/subject-5.csv","legacy","Interactive Ising","3.0.2","0","v","v","space","NA","706","706","5133","NA","2","legacy","1024","2","48000","-16","experiment","5","odd","223729","NA","57491","106533","52208","287168","286596","287133","287877","288868","218596","NA","218596","44037","288115","286631","NA","2399","NA","NA","207576","2399","289318","NA","108953","286593","287168","Stroop CI","59","110395","62","yes","1366","RED"
"82","95.2380952381","yes","95.2380952381","23","1766","1766","#ffffff","no","C","v;b;n;m","legacy","I have read and understood the information shown above","legacy","legacy","green","0","con","uniform","1","1","1","NA","0","0","0","0","0","58","58","58","58","58","0","0","5","0","58","58","0","0","NA","0","58","0","58","NA","0","58","58","12/06/16 16:11:46","The main experiment item","yes","n","W:\Sussex\Consciousness and control\Exp 1 - stroop suggestion and PCE\Methods\Palfi_script","no","mono","no","18","no","black","no","Ok","NA","no","Female","768","legacy","C:/Users/User/Dropbox/Sussex/Consciousness and control/Exp 1 - stroop suggestion and PCE/Methods/Palfi_script/laptop_size/subject-5.csv","legacy","Interactive Ising","3.0.2","0","n","n","space","NA","894","894","5133","NA","2","legacy","1024","2","48000","-16","experiment","5","odd","223729","NA","57491","106533","52208","290091","289519","290056","290988","291976","218596","NA","218596","44037","291224","289554","NA","2399","NA","NA","207576","2399","292426","NA","108953","289517","290091","Stroop CI","60","111289","63","yes","1366","GREEN"
"113","95.3125","yes","95.3125","23","1748","1748","#ffffff","no","C","v;b;n;m","legacy","I have read and understood the information shown above","legacy","legacy","#ffef36","0","con","uniform","1","1","1","NA","0","0","0","0","0","59","59","59","59","59","0","0","5","0","59","59","0","0","NA","0","59","0","59","NA","0","59","59","12/06/16 16:11:46","The main experiment item","yes","m","W:\Sussex\Consciousness and control\Exp 1 - stroop suggestion and PCE\Methods\Palfi_script","no","mono","no","18","no","black","no","Ok","NA","no","Female","768","legacy","C:/Users/User/Dropbox/Sussex/Consciousness and control/Exp 1 - stroop suggestion and PCE/Methods/Palfi_script/laptop_size/subject-5.csv","legacy","Interactive Ising","3.0.2","0","m","m","space","NA","604","604","5133","NA","2","legacy","1024","2","48000","-16","experiment","5","odd","223729","NA","57491","106533","52208","293145","292573","293110","293751","294741","218596","NA","218596","44037","293988","292608","NA","2399","NA","NA","207576","2399","295191","NA","108953","292571","293145","Stroop CI","61","111893","64","yes","1366","YELLOW"
"98","95.3846153846","yes","95.3846153846","23","1729","1729","#ffffff","no","C","v;b;n;m","legacy","I have read and understood the information shown above","legacy","legacy","#ffef36","0","con","uniform","1","1","1","NA","0","0","0","0","0","60","60","60","60","60","0","0","5","0","60","60","0","0","NA","0","60","0","60","NA","0","60","60","12/06/16 16:11:46","The main experiment item","yes","m","W:\Sussex\Consciousness and control\Exp 1 - stroop suggestion and PCE\Methods\Palfi_script","no","mono","no","18","no","black","no","Ok","NA","no","Female","768","legacy","C:/Users/User/Dropbox/Sussex/Consciousness and control/Exp 1 - stroop suggestion and PCE/Methods/Palfi_script/laptop_size/subject-5.csv","legacy","Interactive Ising","3.0.2","0","m","m","space","NA","492","492","5133","NA","2","legacy","1024","2","48000","-16","experiment","5","odd","223729","NA","57491","106533","52208","295936","295363","295900","296431","297419","218596","NA","218596","44037","296667","295398","NA","2399","NA","NA","207576","2399","297869","NA","108953","295361","295936","Stroop CI","62","112385","65","yes","1366","YELLOW"
"42","95.4545454545","yes","95.4545454545","23","1712","1712","#ffffff","no","C","v;b;n;m","legacy","I have read and understood the information shown above","legacy","legacy","red","0","con","uniform","1","1","1","NA","0","0","0","0","0","61","61","61","61","61","0","0","5","0","61","61","0","0","NA","0","61","0","61","NA","0","61","61","12/06/16 16:11:46","The main experiment item","yes","v","W:\Sussex\Consciousness and control\Exp 1 - stroop suggestion and PCE\Methods\Palfi_script","no","mono","no","18","no","black","no","Ok","NA","no","Female","768","legacy","C:/Users/User/Dropbox/Sussex/Consciousness and control/Exp 1 - stroop suggestion and PCE/Methods/Palfi_script/laptop_size/subject-5.csv","legacy","Interactive Ising","3.0.2","0","v","v","space","NA","653","653","5133","NA","2","legacy","1024","2","48000","-16","experiment","5","odd","223729","NA","57491","106533","52208","298622","298049","298587","299278","300266","218596","NA","218596","44037","299514","298085","NA","2399","NA","NA","207576","2399","300717","NA","108953","298047","298622","Stroop CI","63","113038","66","yes","1366","RED"
"8","94.0298507463","yes","94.0298507463","23","1697","1697","#ffffff","no","C","v;b;n;m","legacy","I have read and understood the information shown above","legacy","legacy","blue","0","inc","uniform","0","0","1","NA","0","0","0","0","0","62","62","62","62","62","0","0","5","0","62","62","0","0","NA","0","62","0","62","NA","0","62","62","12/06/16 16:11:46","The main experiment item","yes","b","W:\Sussex\Consciousness and control\Exp 1 - stroop suggestion and PCE\Methods\Palfi_script","no","mono","no","18","no","black","no","Ok","NA","no","Female","768","legacy","C:/Users/User/Dropbox/Sussex/Consciousness and control/Exp 1 - stroop suggestion and PCE/Methods/Palfi_script/laptop_size/subject-5.csv","legacy","Interactive Ising","3.0.2","0","n","n","space","NA","725","725","5133","NA","2","legacy","1024","2","48000","-16","experiment","5","odd","223729","NA","57491","106533","52208","301448","300876","301413","302176","303164","218596","NA","218596","44037","299514","300911","NA","2399","NA","NA","302412","2399","303614","NA","108953","300874","301448","Stroop CI","63","113763","67","yes","1366","RED"
"110","94.1176470588","yes","94.1176470588","23","1683","1683","#ffffff","no","C","v;b;n;m","legacy","I have read and understood the information shown above","legacy","legacy","#ffef36","0","con","uniform","1","1","1","NA","0","0","0","0","0","63","63","63","63","63","0","0","5","0","63","63","0","0","NA","0","63","0","63","NA","0","63","63","12/06/16 16:11:46","The main experiment item","yes","m","W:\Sussex\Consciousness and control\Exp 1 - stroop suggestion and PCE\Methods\Palfi_script","no","mono","no","18","no","black","no","Ok","NA","no","Female","768","legacy","C:/Users/User/Dropbox/Sussex/Consciousness and control/Exp 1 - stroop suggestion and PCE/Methods/Palfi_script/laptop_size/subject-5.csv","legacy","Interactive Ising","3.0.2","0","m","m","space","NA","712","712","5133","NA","2","legacy","1024","2","48000","-16","experiment","5","odd","223729","NA","57491","106533","52208","304319","303747","304284","305034","306024","218596","NA","218596","44037","305270","303782","NA","2399","NA","NA","302412","2399","306474","NA","108953","303745","304319","Stroop CI","64","114475","68","yes","1366","YELLOW"
"40","94.2028985507","yes","94.2028985507","23","1668","1668","#ffffff","no","C","v;b;n;m","legacy","I have read and understood the information shown above","legacy","legacy","red","0","con","uniform","1","1","1","NA","0","0","0","0","0","64","64","64","64","64","0","0","5","0","64","64","0","0","NA","0","64","0","64","NA","0","64","64","12/06/16 16:11:46","The main experiment item","yes","v","W:\Sussex\Consciousness and control\Exp 1 - stroop suggestion and PCE\Methods\Palfi_script","no","mono","no","18","no","black","no","Ok","NA","no","Female","768","legacy","C:/Users/User/Dropbox/Sussex/Consciousness and control/Exp 1 - stroop suggestion and PCE/Methods/Palfi_script/laptop_size/subject-5.csv","legacy","Interactive Ising","3.0.2","0","v","v","space","NA","655","655","5133","NA","2","legacy","1024","2","48000","-16","experiment","5","odd","223729","NA","57491","106533","52208","307249","306676","307214","307907","308896","218596","NA","218596","44037","308143","306711","NA","2399","NA","NA","302412","2399","309346","NA","108953","306674","307249","Stroop CI","65","115130","69","yes","1366","RED"
"41","94.2857142857","yes","94.2857142857","23","1653","1653","#ffffff","no","C","v;b;n;m","legacy","I have read and understood the information shown above","legacy","legacy","red","0","con","uniform","1","1","1","NA","0","0","0","0","0","65","65","65","65","65","0","0","5","0","65","65","0","0","NA","0","65","0","65","NA","0","65","65","12/06/16 16:11:46","The main experiment item","yes","v","W:\Sussex\Consciousness and control\Exp 1 - stroop suggestion and PCE\Methods\Palfi_script","no","mono","no","18","no","black","no","Ok","NA","no","Female","768","legacy","C:/Users/User/Dropbox/Sussex/Consciousness and control/Exp 1 - stroop suggestion and PCE/Methods/Palfi_script/laptop_size/subject-5.csv","legacy","Interactive Ising","3.0.2","0","v","v","space","NA","591","591","5133","NA","2","legacy","1024","2","48000","-16","experiment","5","odd","223729","NA","57491","106533","52208","310144","309572","310109","310737","311728","218596","NA","218596","44037","310976","309607","NA","2399","NA","NA","302412","2399","312178","NA","108953","309570","310144","Stroop CI","66","115721","70","yes","1366","RED"
"81","94.3661971831","yes","94.3661971831","23","1642","1642","#ffffff","no","C","v;b;n;m","legacy","I have read and understood the information shown above","legacy","legacy","green","0","con","uniform","1","1","1","NA","0","0","0","0","0","66","66","66","66","66","0","0","5","0","66","66","0","0","NA","0","66","0","66","NA","0","66","66","12/06/16 16:11:46","The main experiment item","yes","n","W:\Sussex\Consciousness and control\Exp 1 - stroop suggestion and PCE\Methods\Palfi_script","no","mono","no","18","no","black","no","Ok","NA","no","Female","768","legacy","C:/Users/User/Dropbox/Sussex/Consciousness and control/Exp 1 - stroop suggestion and PCE/Methods/Palfi_script/laptop_size/subject-5.csv","legacy","Interactive Ising","3.0.2","0","n","n","space","NA","916","916","5133","NA","2","legacy","1024","2","48000","-16","experiment","5","odd","223729","NA","57491","106533","52208","312883","312311","312848","313802","314790","218596","NA","218596","44037","314038","312346","NA","2399","NA","NA","302412","2399","315240","NA","108953","312309","312883","Stroop CI","67","116637","71","yes","1366","GREEN"
"36","94.4444444444","yes","94.4444444444","23","1631","1631","#ffffff","no","C","v;b;n;m","legacy","I have read and understood the information shown above","legacy","legacy","red","0","con","uniform","1","1","1","NA","0","0","0","0","0","67","67","67","67","67","0","0","5","0","67","67","0","0","NA","0","67","0","67","NA","0","67","67","12/06/16 16:11:46","The main experiment item","yes","v","W:\Sussex\Consciousness and control\Exp 1 - stroop suggestion and PCE\Methods\Palfi_script","no","mono","no","18","no","black","no","Ok","NA","no","Female","768","legacy","C:/Users/User/Dropbox/Sussex/Consciousness and control/Exp 1 - stroop suggestion and PCE/Methods/Palfi_script/laptop_size/subject-5.csv","legacy","Interactive Ising","3.0.2","0","v","v","space","NA","865","865","5133","NA","2","legacy","1024","2","48000","-16","experiment","5","odd","223729","NA","57491","106533","52208","315953","315381","315918","316821","317811","218596","NA","218596","44037","317059","315416","NA","2399","NA","NA","302412","2399","318261","NA","108953","315378","315953","Stroop CI","68","117502","72","yes","1366","RED"
"57","94.5205479452","yes","94.5205479452","23","1620","1620","#ffffff","no","C","v;b;n;m","legacy","I have read and understood the information shown above","legacy","legacy","blue","0","con","uniform","1","1","1","NA","0","0","0","0","0","68","68","68","68","68","0","0","5","0","68","68","0","0","NA","0","68","0","68","NA","0","68","68","12/06/16 16:11:46","The main experiment item","yes","b","W:\Sussex\Consciousness and control\Exp 1 - stroop suggestion and PCE\Methods\Palfi_script","no","mono","no","18","no","black","no","Ok","NA","no","Female","768","legacy","C:/Users/User/Dropbox/Sussex/Consciousness and control/Exp 1 - stroop suggestion and PCE/Methods/Palfi_script/laptop_size/subject-5.csv","legacy","Interactive Ising","3.0.2","0","b","b","space","NA","778","778","5133","NA","2","legacy","1024","2","48000","-16","experiment","5","odd","223729","NA","57491","106533","52208","318967","318395","318932","319747","320736","218596","NA","218596","44037","319984","318430","NA","2399","NA","NA","302412","2399","321187","NA","108953","318393","318967","Stroop CI","69","118280","73","yes","1366","BLUE"
"108","94.5945945946","yes","94.5945945946","23","1614","1614","#ffffff","no","C","v;b;n;m","legacy","I have read and understood the information shown above","legacy","legacy","#ffef36","0","con","uniform","1","1","1","NA","0","0","0","0","0","69","69","69","69","69","0","0","5","0","69","69","0","0","NA","0","69","0","69","NA","0","69","69","12/06/16 16:11:46","The main experiment item","yes","m","W:\Sussex\Consciousness and control\Exp 1 - stroop suggestion and PCE\Methods\Palfi_script","no","mono","no","18","no","black","no","Ok","NA","no","Female","768","legacy","C:/Users/User/Dropbox/Sussex/Consciousness and control/Exp 1 - stroop suggestion and PCE/Methods/Palfi_script/laptop_size/subject-5.csv","legacy","Interactive Ising","3.0.2","0","m","m","space","NA","1214","1214","5133","NA","2","legacy","1024","2","48000","-16","experiment","5","odd","223729","NA","57491","106533","52208","321940","321368","321905","323156","324145","218596","NA","218596","44037","323393","321403","NA","2399","NA","NA","302412","2399","324595","NA","108953","321366","321940","Stroop CI","70","119494","74","yes","1366","YELLOW"
"28","94.6666666667","yes","94.6666666667","23","1602","1602","#ffffff","no","C","v;b;n;m","legacy","I have read and understood the information shown above","legacy","legacy","red","0","con","uniform","1","1","1","NA","0","0","0","0","0","70","70","70","70","70","0","0","5","0","70","70","0","0","NA","0","70","0","70","NA","0","70","70","12/06/16 16:11:46","The main experiment item","yes","v","W:\Sussex\Consciousness and control\Exp 1 - stroop suggestion and PCE\Methods\Palfi_script","no","mono","no","18","no","black","no","Ok","NA","no","Female","768","legacy","C:/Users/User/Dropbox/Sussex/Consciousness and control/Exp 1 - stroop suggestion and PCE/Methods/Palfi_script/laptop_size/subject-5.csv","legacy","Interactive Ising","3.0.2","0","v","v","space","NA","681","681","5133","NA","2","legacy","1024","2","48000","-16","experiment","5","odd","223729","NA","57491","106533","52208","325346","324774","325311","326031","327021","218596","NA","218596","44037","326267","324809","NA","2399","NA","NA","302412","2399","327471","NA","108953","324772","325346","Stroop CI","71","120175","75","yes","1366","RED"
"10","93.4210526316","yes","93.4210526316","23","1593","1593","#ffffff","no","C","v;b;n;m","legacy","I have read and understood the information shown above","legacy","legacy","blue","0","inc","uniform","0","0","1","NA","0","0","0","0","0","71","71","71","71","71","0","0","5","0","71","71","0","0","NA","0","71","0","71","NA","0","71","71","12/06/16 16:11:46","The main experiment item","yes","b","W:\Sussex\Consciousness and control\Exp 1 - stroop suggestion and PCE\Methods\Palfi_script","no","mono","no","18","no","black","no","Ok","NA","no","Female","768","legacy","C:/Users/User/Dropbox/Sussex/Consciousness and control/Exp 1 - stroop suggestion and PCE/Methods/Palfi_script/laptop_size/subject-5.csv","legacy","Interactive Ising","3.0.2","0","n","n","space","NA","957","957","5133","NA","2","legacy","1024","2","48000","-16","experiment","5","odd","223729","NA","57491","106533","52208","328188","327614","328152","329149","330137","218596","NA","218596","44037","326267","327650","NA","2399","NA","NA","329385","2399","330587","NA","108953","327612","328188","Stroop CI","71","121132","76","yes","1366","GREEN"
"96","93.5064935065","yes","93.5064935065","23","1583","1583","#ffffff","no","C","v;b;n;m","legacy","I have read and understood the information shown above","legacy","legacy","green","0","con","uniform","1","1","1","NA","0","0","0","0","0","72","72","72","72","72","0","0","5","0","72","72","0","0","NA","0","72","0","72","NA","0","72","72","12/06/16 16:11:46","The main experiment item","yes","n","W:\Sussex\Consciousness and control\Exp 1 - stroop suggestion and PCE\Methods\Palfi_script","no","mono","no","18","no","black","no","Ok","NA","no","Female","768","legacy","C:/Users/User/Dropbox/Sussex/Consciousness and control/Exp 1 - stroop suggestion and PCE/Methods/Palfi_script/laptop_size/subject-5.csv","legacy","Interactive Ising","3.0.2","0","n","n","space","NA","775","775","5133","NA","2","legacy","1024","2","48000","-16","experiment","5","odd","223729","NA","57491","106533","52208","331299","330727","331264","332077","333067","218596","NA","218596","44037","332313","330762","NA","2399","NA","NA","329385","2399","333517","NA","108953","330725","331299","Stroop CI","72","121907","77","yes","1366","GREEN"
"84","93.5897435897","yes","93.5897435897","23","1571","1571","#ffffff","no","C","v;b;n;m","legacy","I have read and understood the information shown above","legacy","legacy","green","0","con","uniform","1","1","1","NA","0","0","0","0","0","73","73","73","73","73","0","0","5","0","73","73","0","0","NA","0","73","0","73","NA","0","73","73","12/06/16 16:11:46","The main experiment item","yes","n","W:\Sussex\Consciousness and control\Exp 1 - stroop suggestion and PCE\Methods\Palfi_script","no","mono","no","18","no","black","no","Ok","NA","no","Female","768","legacy","C:/Users/User/Dropbox/Sussex/Consciousness and control/Exp 1 - stroop suggestion and PCE/Methods/Palfi_script/laptop_size/subject-5.csv","legacy","Interactive Ising","3.0.2","0","n","n","space","NA","680","680","5133","NA","2","legacy","1024","2","48000","-16","experiment","5","odd","223729","NA","57491","106533","52208","334272","333697","334236","334956","335944","218596","NA","218596","44037","335192","333732","NA","2399","NA","NA","329385","2399","336394","NA","108953","333695","334272","Stroop CI","73","122587","78","yes","1366","GREEN"
"71","93.6708860759","yes","93.6708860759","23","1560","1560","#ffffff","no","C","v;b;n;m","legacy","I have read and understood the information shown above","legacy","legacy","blue","0","con","uniform","1","1","1","NA","0","0","0","0","0","74","74","74","74","74","0","0","5","0","74","74","0","0","NA","0","74","0","74","NA","0","74","74","12/06/16 16:11:46","The main experiment item","yes","b","W:\Sussex\Consciousness and control\Exp 1 - stroop suggestion and PCE\Methods\Palfi_script","no","mono","no","18","no","black","no","Ok","NA","no","Female","768","legacy","C:/Users/User/Dropbox/Sussex/Consciousness and control/Exp 1 - stroop suggestion and PCE/Methods/Palfi_script/laptop_size/subject-5.csv","legacy","Interactive Ising","3.0.2","0","b","b","space","NA","665","665","5133","NA","2","legacy","1024","2","48000","-16","experiment","5","odd","223729","NA","57491","106533","52208","337159","336586","337124","337827","338817","218596","NA","218596","44037","338063","336622","NA","2399","NA","NA","329385","2399","339267","NA","108953","336584","337159","Stroop CI","74","123252","79","yes","1366","BLUE"
"76","93.75","yes","93.75","23","1550","1550","#ffffff","no","C","v;b;n;m","legacy","I have read and understood the information shown above","legacy","legacy","green","0","con","uniform","1","1","1","NA","0","0","0","0","0","75","75","75","75","75","0","0","5","0","75","75","0","0","NA","0","75","0","75","NA","0","75","75","12/06/16 16:11:46","The main experiment item","yes","n","W:\Sussex\Consciousness and control\Exp 1 - stroop suggestion and PCE\Methods\Palfi_script","no","mono","no","18","no","black","no","Ok","NA","no","Female","768","legacy","C:/Users/User/Dropbox/Sussex/Consciousness and control/Exp 1 - stroop suggestion and PCE/Methods/Palfi_script/laptop_size/subject-5.csv","legacy","Interactive Ising","3.0.2","0","n","n","space","NA","819","819","5133","NA","2","legacy","1024","2","48000","-16","experiment","5","odd","223729","NA","57491","106533","52208","339968","339395","339933","340790","341781","218596","NA","218596","44037","341028","339431","NA","2399","NA","NA","329385","2399","342231","NA","108953","339393","339968","Stroop CI","75","124071","80","yes","1366","GREEN"
"83","93.8271604938","yes","93.8271604938","23","1538","1538","#ffffff","no","C","v;b;n;m","legacy","I have read and understood the information shown above","legacy","legacy","green","0","con","uniform","1","1","1","NA","0","0","0","0","0","76","76","76","76","76","0","0","5","0","76","76","0","0","NA","0","76","0","76","NA","0","76","76","12/06/16 16:11:46","The main experiment item","yes","n","W:\Sussex\Consciousness and control\Exp 1 - stroop suggestion and PCE\Methods\Palfi_script","no","mono","no","18","no","black","no","Ok","NA","no","Female","768","legacy","C:/Users/User/Dropbox/Sussex/Consciousness and control/Exp 1 - stroop suggestion and PCE/Methods/Palfi_script/laptop_size/subject-5.csv","legacy","Interactive Ising","3.0.2","0","n","n","space","NA","515","515","5133","NA","2","legacy","1024","2","48000","-16","experiment","5","odd","223729","NA","57491","106533","52208","342983","342410","342948","343500","344488","218596","NA","218596","44037","343736","342446","NA","2399","NA","NA","329385","2399","344938","NA","108953","342408","342983","Stroop CI","76","124586","81","yes","1366","GREEN"
"32","93.9024390244","yes","93.9024390244","23","1527","1527","#ffffff","no","C","v;b;n;m","legacy","I have read and understood the information shown above","legacy","legacy","red","0","con","uniform","1","1","1","NA","0","0","0","0","0","77","77","77","77","77","0","0","5","0","77","77","0","0","NA","0","77","0","77","NA","0","77","77","12/06/16 16:11:46","The main experiment item","yes","v","W:\Sussex\Consciousness and control\Exp 1 - stroop suggestion and PCE\Methods\Palfi_script","no","mono","no","18","no","black","no","Ok","NA","no","Female","768","legacy","C:/Users/User/Dropbox/Sussex/Consciousness and control/Exp 1 - stroop suggestion and PCE/Methods/Palfi_script/laptop_size/subject-5.csv","legacy","Interactive Ising","3.0.2","0","v","v","space","NA","675","675","5133","NA","2","legacy","1024","2","48000","-16","experiment","5","odd","223729","NA","57491","106533","52208","345660","345088","345625","346338","347326","218596","NA","218596","44037","346574","345123","NA","2399","NA","NA","329385","2399","347776","NA","108953","345085","345660","Stroop CI","77","125261","82","yes","1366","RED"
"16","93.9759036145","yes","93.9759036145","23","1524","1524","#ffffff","no","C","v;b;n;m","legacy","I have read and understood the information shown above","legacy","legacy","blue","0","neutral","uniform","1","1","1","NA","0","0","0","0","0","78","78","78","78","78","0","0","5","0","78","78","0","0","NA","0","78","0","78","NA","0","78","78","12/06/16 16:11:46","The main experiment item","yes","b","W:\Sussex\Consciousness and control\Exp 1 - stroop suggestion and PCE\Methods\Palfi_script","no","mono","no","18","no","black","no","Ok","NA","no","Female","768","legacy","C:/Users/User/Dropbox/Sussex/Consciousness and control/Exp 1 - stroop suggestion and PCE/Methods/Palfi_script/laptop_size/subject-5.csv","legacy","Interactive Ising","3.0.2","0","b","b","space","NA","1262","1262","5133","NA","2","legacy","1024","2","48000","-16","experiment","5","odd","223729","NA","57491","106533","52208","348518","347946","348483","349783","350771","218596","NA","218596","44037","350019","347981","NA","2399","NA","NA","329385","2399","351221","NA","108953","347943","348518","Stroop CI","78","126523","83","yes","1366","LOT"
"109","94.0476190476","yes","94.0476190476","23","1515","1515","#ffffff","no","C","v;b;n;m","legacy","I have read and understood the information shown above","legacy","legacy","#ffef36","0","con","uniform","1","1","1","NA","0","0","0","0","0","79","79","79","79","79","0","0","5","0","79","79","0","0","NA","0","79","0","79","NA","0","79","79","12/06/16 16:11:46","The main experiment item","yes","m","W:\Sussex\Consciousness and control\Exp 1 - stroop suggestion and PCE\Methods\Palfi_script","no","mono","no","18","no","black","no","Ok","NA","no","Female","768","legacy","C:/Users/User/Dropbox/Sussex/Consciousness and control/Exp 1 - stroop suggestion and PCE/Methods/Palfi_script/laptop_size/subject-5.csv","legacy","Interactive Ising","3.0.2","0","m","m","space","NA","794","794","5133","NA","2","legacy","1024","2","48000","-16","experiment","5","odd","223729","NA","57491","106533","52208","351943","351370","351908","352740","353729","218596","NA","218596","44037","352977","351406","NA","2399","NA","NA","329385","2399","354179","NA","108953","351368","351943","Stroop CI","79","127317","84","yes","1366","YELLOW"
"50","94.1176470588","yes","94.1176470588","23","1507","1507","#ffffff","no","C","v;b;n;m","legacy","I have read and understood the information shown above","legacy","legacy","blue","0","con","uniform","1","1","1","NA","0","0","0","0","0","80","80","80","80","80","0","0","5","0","80","80","0","0","NA","0","80","0","80","NA","0","80","80","12/06/16 16:11:46","The main experiment item","yes","b","W:\Sussex\Consciousness and control\Exp 1 - stroop suggestion and PCE\Methods\Palfi_script","no","mono","no","18","no","black","no","Ok","NA","no","Female","768","legacy","C:/Users/User/Dropbox/Sussex/Consciousness and control/Exp 1 - stroop suggestion and PCE/Methods/Palfi_script/laptop_size/subject-5.csv","legacy","Interactive Ising","3.0.2","0","b","b","space","NA","841","841","5133","NA","2","legacy","1024","2","48000","-16","experiment","5","odd","223729","NA","57491","106533","52208","354881","354309","354846","355725","356713","218596","NA","218596","44037","355961","354344","NA","2399","NA","NA","329385","2399","357163","NA","108953","354306","354881","Stroop CI","80","128158","85","yes","1366","BLUE"
"86","94.1860465116","yes","94.1860465116","23","1496","1496","#ffffff","no","C","v;b;n;m","legacy","I have read and understood the information shown above","legacy","legacy","green","0","con","uniform","1","1","1","NA","0","0","0","0","0","81","81","81","81","81","0","0","5","0","81","81","0","0","NA","0","81","0","81","NA","0","81","81","12/06/16 16:11:46","The main experiment item","yes","n","W:\Sussex\Consciousness and control\Exp 1 - stroop suggestion and PCE\Methods\Palfi_script","no","mono","no","18","no","black","no","Ok","NA","no","Female","768","legacy","C:/Users/User/Dropbox/Sussex/Consciousness and control/Exp 1 - stroop suggestion and PCE/Methods/Palfi_script/laptop_size/subject-5.csv","legacy","Interactive Ising","3.0.2","0","n","n","space","NA","577","577","5133","NA","2","legacy","1024","2","48000","-16","experiment","5","odd","223729","NA","57491","106533","52208","357927","357355","357892","358507","359497","218596","NA","218596","44037","358743","357390","NA","2399","NA","NA","329385","2399","359947","NA","108953","357353","357927","Stroop CI","81","128735","86","yes","1366","GREEN"
"9","94.2528735632","yes","94.2528735632","23","1496","1496","#ffffff","no","C","v;b;n;m","legacy","I have read and understood the information shown above","legacy","legacy","blue","0","inc","uniform","1","1","1","NA","0","0","0","0","0","82","82","82","82","82","0","0","5","0","82","82","0","0","NA","0","82","0","82","NA","0","82","82","12/06/16 16:11:46","The main experiment item","yes","b","W:\Sussex\Consciousness and control\Exp 1 - stroop suggestion and PCE\Methods\Palfi_script","no","mono","no","18","no","black","no","Ok","NA","no","Female","768","legacy","C:/Users/User/Dropbox/Sussex/Consciousness and control/Exp 1 - stroop suggestion and PCE/Methods/Palfi_script/laptop_size/subject-5.csv","legacy","Interactive Ising","3.0.2","0","b","b","space","NA","1497","1497","5133","NA","2","legacy","1024","2","48000","-16","experiment","5","odd","223729","NA","57491","106533","52208","360692","360120","360657","362192","363181","218596","NA","218596","44037","362428","360155","NA","2399","NA","NA","329385","2399","363631","NA","108953","360118","360692","Stroop CI","82","130232","87","yes","1366","GREEN"
"25","94.3181818182","yes","94.3181818182","23","1487","1487","#ffffff","no","C","v;b;n;m","legacy","I have read and understood the information shown above","legacy","legacy","red","0","con","uniform","1","1","1","NA","0","0","0","0","0","83","83","83","83","83","0","0","5","0","83","83","0","0","NA","0","83","0","83","NA","0","83","83","12/06/16 16:11:46","The main experiment item","yes","v","W:\Sussex\Consciousness and control\Exp 1 - stroop suggestion and PCE\Methods\Palfi_script","no","mono","no","18","no","black","no","Ok","NA","no","Female","768","legacy","C:/Users/User/Dropbox/Sussex/Consciousness and control/Exp 1 - stroop suggestion and PCE/Methods/Palfi_script/laptop_size/subject-5.csv","legacy","Interactive Ising","3.0.2","0","v","v","space","NA","681","681","5133","NA","2","legacy","1024","2","48000","-16","experiment","5","odd","223729","NA","57491","106533","52208","364342","363770","364307","365026","366014","218596","NA","218596","44037","365262","363805","NA","2399","NA","NA","329385","2399","366464","NA","108953","363768","364342","Stroop CI","83","130913","88","yes","1366","RED"
"92","94.3820224719","yes","94.3820224719","23","1478","1478","#ffffff","no","C","v;b;n;m","legacy","I have read and understood the information shown above","legacy","legacy","green","0","con","uniform","1","1","1","NA","0","0","0","0","0","84","84","84","84","84","0","0","5","0","84","84","0","0","NA","0","84","0","84","NA","0","84","84","12/06/16 16:11:46","The main experiment item","yes","n","W:\Sussex\Consciousness and control\Exp 1 - stroop suggestion and PCE\Methods\Palfi_script","no","mono","no","18","no","black","no","Ok","NA","no","Female","768","legacy","C:/Users/User/Dropbox/Sussex/Consciousness and control/Exp 1 - stroop suggestion and PCE/Methods/Palfi_script/laptop_size/subject-5.csv","legacy","Interactive Ising","3.0.2","0","n","n","space","NA","671","671","5133","NA","2","legacy","1024","2","48000","-16","experiment","5","odd","223729","NA","57491","106533","52208","367214","366642","367179","367888","368879","218596","NA","218596","44037","368126","366677","NA","2399","NA","NA","329385","2399","369330","NA","108953","366640","367214","Stroop CI","84","131584","89","yes","1366","GREEN"
"72","94.4444444444","yes","94.4444444444","23","1469","1469","#ffffff","no","C","v;b;n;m","legacy","I have read and understood the information shown above","legacy","legacy","blue","0","con","uniform","1","1","1","NA","0","0","0","0","0","85","85","85","85","85","0","0","5","0","85","85","0","0","NA","0","85","0","85","NA","0","85","85","12/06/16 16:11:46","The main experiment item","yes","b","W:\Sussex\Consciousness and control\Exp 1 - stroop suggestion and PCE\Methods\Palfi_script","no","mono","no","18","no","black","no","Ok","NA","no","Female","768","legacy","C:/Users/User/Dropbox/Sussex/Consciousness and control/Exp 1 - stroop suggestion and PCE/Methods/Palfi_script/laptop_size/subject-5.csv","legacy","Interactive Ising","3.0.2","0","b","b","space","NA","680","680","5133","NA","2","legacy","1024","2","48000","-16","experiment","5","odd","223729","NA","57491","106533","52208","370078","369506","370043","370763","371751","218596","NA","218596","44037","370999","369541","NA","2399","NA","NA","329385","2399","372201","NA","108953","369503","370078","Stroop CI","85","132264","90","yes","1366","BLUE"
"27","94.5054945055","yes","94.5054945055","23","1460","1460","#ffffff","no","C","v;b;n;m","legacy","I have read and understood the information shown above","legacy","legacy","red","0","con","uniform","1","1","1","NA","0","0","0","0","0","86","86","86","86","86","0","0","5","0","86","86","0","0","NA","0","86","0","86","NA","0","86","86","12/06/16 16:11:46","The main experiment item","yes","v","W:\Sussex\Consciousness and control\Exp 1 - stroop suggestion and PCE\Methods\Palfi_script","no","mono","no","18","no","black","no","Ok","NA","no","Female","768","legacy","C:/Users/User/Dropbox/Sussex/Consciousness and control/Exp 1 - stroop suggestion and PCE/Methods/Palfi_script/laptop_size/subject-5.csv","legacy","Interactive Ising","3.0.2","0","v","v","space","NA","648","648","5133","NA","2","legacy","1024","2","48000","-16","experiment","5","odd","223729","NA","57491","106533","52208","372936","372364","372901","373586","374576","218596","NA","218596","44037","373823","372399","NA","2399","NA","NA","329385","2399","375026","NA","108953","372362","372936","Stroop CI","86","132912","91","yes","1366","RED"
"37","94.5652173913","yes","94.5652173913","23","1454","1454","#ffffff","no","C","v;b;n;m","legacy","I have read and understood the information shown above","legacy","legacy","red","0","con","uniform","1","1","1","NA","0","0","0","0","0","87","87","87","87","87","0","0","5","0","87","87","0","0","NA","0","87","0","87","NA","0","87","87","12/06/16 16:11:46","The main experiment item","yes","v","W:\Sussex\Consciousness and control\Exp 1 - stroop suggestion and PCE\Methods\Palfi_script","no","mono","no","18","no","black","no","Ok","NA","no","Female","768","legacy","C:/Users/User/Dropbox/Sussex/Consciousness and control/Exp 1 - stroop suggestion and PCE/Methods/Palfi_script/laptop_size/subject-5.csv","legacy","Interactive Ising","3.0.2","0","v","v","space","NA","919","919","5133","NA","2","legacy","1024","2","48000","-16","experiment","5","odd","223729","NA","57491","106533","52208","375738","375166","375703","376660","377651","218596","NA","218596","44037","376898","375201","NA","2399","NA","NA","329385","2399","378101","NA","108953","375163","375738","Stroop CI","87","133831","92","yes","1366","RED"
