"ID","acc","accept_status","accuracy","age","average_response_time","avg_rt","background","bidi","block","buttons","canvas_backend","checkbox_status","clock_backend","color_backend","colour","compensation","congruency","coordinates","correct","correct_answer","correct_button_block","correct_new_keyboard_response","count_C","count_I","count_Instruction","count_Practice_start","count_age","count_answer","count_blank","count_blank2","count_blank3","count_blank_4","count_break","count_break2","count_button_block","count_consent_form","count_correct_feedback","count_cross","count_end","count_experiment","count_feedback","count_gender","count_incorrect_feedback","count_information_sheet","count_logger","count_new_keyboard_response","count_practice","count_stroop","count_target","datetime","description","disable_garbage_collection","expected","experiment_path","font_bold","font_family","font_italic","font_size","font_underline","foreground","form_clicks","form_response","form_var","fullscreen","gender","height","keyboard_backend","logfile","mouse_backend","opensesame_codename","opensesame_version","repeat_cycle","response","response_answer","response_button_block","response_new_keyboard_response","response_time","response_time_answer","response_time_button_block","response_time_new_keyboard_response","round_decimals","sampler_backend","sound_buf_size","sound_channels","sound_freq","sound_sample_size","start","subject_nr","subject_parity","time_C","time_I","time_Instruction","time_Practice_start","time_age","time_answer","time_blank","time_blank2","time_blank3","time_blank_4","time_break","time_break2","time_button_block","time_consent_form","time_correct_feedback","time_cross","time_end","time_experiment","time_feedback","time_gender","time_incorrect_feedback","time_information_sheet","time_logger","time_new_keyboard_response","time_practice","time_stroop","time_target","title","total_correct","total_response_time","total_responses","uniform_coordinates","width","word"
"31","75","yes","75","25","17743","17743","#ffffff","no","practice","v;b;n;m","legacy","I have read and understood the information shown above","legacy","legacy","green","0","neutral","uniform","0","0","1","NA","0","0","0","0","0","0","0","0","0","0","0","0","5","0","0","0","0","0","NA","0","0","0","0","NA","0","0","0","12/06/16 18:00:44","The main experiment item","yes","n","W:\Sussex\Consciousness and control\Exp 1 - stroop suggestion and PCE\Methods\Palfi_script","no","mono","no","18","no","black","no","Ok","NA","no","Male","768","legacy","C:/Users/User/Dropbox/Sussex/Consciousness and control/Exp 1 - stroop suggestion and PCE/Methods/Palfi_script/laptop_size/subject-6.csv","legacy","Interactive Ising","3.0.2","0","None","None","space","NA","2000","2000","2003","NA","2","legacy","1024","2","48000","-16","experiment","6","even","NA","NA","606675","660528","601392","663207","662635","663172","665210","666202","NA","NA","660528","583178","NA","662670","NA","2323","NA","NA","665448","577856","666652","NA","662532","662633","663207","Stroop IC","3","70975","4","yes","1366","LOT"
"30","80","yes","80","25","14391","14391","#ffffff","no","practice","v;b;n;m","legacy","I have read and understood the information shown above","legacy","legacy","blue","0","neutral","uniform","1","1","1","NA","0","0","0","0","0","1","1","1","1","1","0","0","5","0","1","1","0","0","NA","0","1","0","1","NA","0","1","1","12/06/16 18:00:44","The main experiment item","yes","b","W:\Sussex\Consciousness and control\Exp 1 - stroop suggestion and PCE\Methods\Palfi_script","no","mono","no","18","no","black","no","Ok","NA","no","Male","768","legacy","C:/Users/User/Dropbox/Sussex/Consciousness and control/Exp 1 - stroop suggestion and PCE/Methods/Palfi_script/laptop_size/subject-6.csv","legacy","Interactive Ising","3.0.2","0","b","b","space","NA","982","982","2003","NA","2","legacy","1024","2","48000","-16","experiment","6","even","NA","NA","606675","660528","601392","667431","666859","667396","668416","669406","NA","NA","660528","583178","668654","666894","NA","2323","NA","NA","665448","577856","669856","NA","662532","666857","667431","Stroop IC","4","71957","5","yes","1366","FLOWER"
"4","83.3333333333","yes","83.3333333333","25","12134","12134","#ffffff","no","practice","v;b;n;m","legacy","I have read and understood the information shown above","legacy","legacy","blue","0","inc","uniform","1","1","1","NA","0","0","0","0","0","2","2","2","2","2","0","0","5","0","2","2","0","0","NA","0","2","0","2","NA","0","2","2","12/06/16 18:00:44","The main experiment item","yes","b","W:\Sussex\Consciousness and control\Exp 1 - stroop suggestion and PCE\Methods\Palfi_script","no","mono","no","18","no","black","no","Ok","NA","no","Male","768","legacy","C:/Users/User/Dropbox/Sussex/Consciousness and control/Exp 1 - stroop suggestion and PCE/Methods/Palfi_script/laptop_size/subject-6.csv","legacy","Interactive Ising","3.0.2","0","b","b","space","NA","847","847","2003","NA","2","legacy","1024","2","48000","-16","experiment","6","even","NA","NA","606675","660528","601392","670572","670000","670537","671422","672413","NA","NA","660528","583178","671659","670035","NA","2323","NA","NA","665448","577856","672863","NA","662532","669998","670572","Stroop IC","5","72804","6","yes","1366","RED"
"15","85.7142857143","yes","85.7142857143","25","10528","10528","#ffffff","no","practice","v;b;n;m","legacy","I have read and understood the information shown above","legacy","legacy","red","0","con","uniform","1","1","1","NA","0","0","0","0","0","3","3","3","3","3","0","0","5","0","3","3","0","0","NA","0","3","0","3","NA","0","3","3","12/06/16 18:00:44","The main experiment item","yes","v","W:\Sussex\Consciousness and control\Exp 1 - stroop suggestion and PCE\Methods\Palfi_script","no","mono","no","18","no","black","no","Ok","NA","no","Male","768","legacy","C:/Users/User/Dropbox/Sussex/Consciousness and control/Exp 1 - stroop suggestion and PCE/Methods/Palfi_script/laptop_size/subject-6.csv","legacy","Interactive Ising","3.0.2","0","v","v","space","NA","893","893","2003","NA","2","legacy","1024","2","48000","-16","experiment","6","even","NA","NA","606675","660528","601392","673571","672998","673536","674467","675457","NA","NA","660528","583178","674704","673034","NA","2323","NA","NA","665448","577856","675907","NA","662532","672996","673571","Stroop IC","6","73697","7","yes","1366","RED"
"14","87.5","yes","87.5","25","9304","9304","#ffffff","no","practice","v;b;n;m","legacy","I have read and understood the information shown above","legacy","legacy","red","0","con","uniform","1","1","1","NA","0","0","0","0","0","4","4","4","4","4","0","0","5","0","4","4","0","0","NA","0","4","0","4","NA","0","4","4","12/06/16 18:00:44","The main experiment item","yes","v","W:\Sussex\Consciousness and control\Exp 1 - stroop suggestion and PCE\Methods\Palfi_script","no","mono","no","18","no","black","no","Ok","NA","no","Male","768","legacy","C:/Users/User/Dropbox/Sussex/Consciousness and control/Exp 1 - stroop suggestion and PCE/Methods/Palfi_script/laptop_size/subject-6.csv","legacy","Interactive Ising","3.0.2","0","v","v","space","NA","735","735","2003","NA","2","legacy","1024","2","48000","-16","experiment","6","even","NA","NA","606675","660528","601392","676617","676045","676582","677355","678343","NA","NA","660528","583178","677591","676080","NA","2323","NA","NA","665448","577856","678793","NA","662532","676043","676617","Stroop IC","7","74432","8","yes","1366","RED"
"25","88.8888888889","yes","88.8888888889","25","8343","8343","#ffffff","no","practice","v;b;n;m","legacy","I have read and understood the information shown above","legacy","legacy","red","0","neutral","uniform","1","1","1","NA","0","0","0","0","0","5","5","5","5","5","0","0","5","0","5","5","0","0","NA","0","5","0","5","NA","0","5","5","12/06/16 18:00:44","The main experiment item","yes","v","W:\Sussex\Consciousness and control\Exp 1 - stroop suggestion and PCE\Methods\Palfi_script","no","mono","no","18","no","black","no","Ok","NA","no","Male","768","legacy","C:/Users/User/Dropbox/Sussex/Consciousness and control/Exp 1 - stroop suggestion and PCE/Methods/Palfi_script/laptop_size/subject-6.csv","legacy","Interactive Ising","3.0.2","0","v","v","space","NA","662","662","2003","NA","2","legacy","1024","2","48000","-16","experiment","6","even","NA","NA","606675","660528","601392","679509","678934","679474","680174","681162","NA","NA","660528","583178","680410","678970","NA","2323","NA","NA","665448","577856","681612","NA","662532","678932","679509","Stroop IC","8","75094","9","yes","1366","SHIP"
"7","80","yes","80","25","7709","7709","#ffffff","no","practice","v;b;n;m","legacy","I have read and understood the information shown above","legacy","legacy","green","0","inc","uniform","0","0","1","NA","0","0","0","0","0","6","6","6","6","6","0","0","5","0","6","6","0","0","NA","0","6","0","6","NA","0","6","6","12/06/16 18:00:44","The main experiment item","yes","n","W:\Sussex\Consciousness and control\Exp 1 - stroop suggestion and PCE\Methods\Palfi_script","no","mono","no","18","no","black","no","Ok","NA","no","Male","768","legacy","C:/Users/User/Dropbox/Sussex/Consciousness and control/Exp 1 - stroop suggestion and PCE/Methods/Palfi_script/laptop_size/subject-6.csv","legacy","Interactive Ising","3.0.2","0","None","None","space","NA","2000","2000","2003","NA","2","legacy","1024","2","48000","-16","experiment","6","even","NA","NA","606675","660528","601392","682311","681739","682276","684313","685301","NA","NA","660528","583178","680410","681774","NA","2323","NA","NA","684549","577856","685751","NA","662532","681737","682311","Stroop IC","8","77094","10","yes","1366","RED"
"1","81.8181818182","yes","81.8181818182","25","7131","7131","#ffffff","no","practice","v;b;n;m","legacy","I have read and understood the information shown above","legacy","legacy","red","0","inc","uniform","1","1","1","NA","0","0","0","0","0","7","7","7","7","7","0","0","5","0","7","7","0","0","NA","0","7","0","7","NA","0","7","7","12/06/16 18:00:44","The main experiment item","yes","v","W:\Sussex\Consciousness and control\Exp 1 - stroop suggestion and PCE\Methods\Palfi_script","no","mono","no","18","no","black","no","Ok","NA","no","Male","768","legacy","C:/Users/User/Dropbox/Sussex/Consciousness and control/Exp 1 - stroop suggestion and PCE/Methods/Palfi_script/laptop_size/subject-6.csv","legacy","Interactive Ising","3.0.2","0","v","v","space","NA","1349","1349","2003","NA","2","legacy","1024","2","48000","-16","experiment","6","even","NA","NA","606675","660528","601392","686459","685887","686424","687811","688799","NA","NA","660528","583178","688047","685922","NA","2323","NA","NA","684549","577856","689249","NA","662532","685884","686459","Stroop IC","9","78443","11","yes","1366","BLUE"
"26","83.3333333333","yes","83.3333333333","25","6605","6605","#ffffff","no","practice","v;b;n;m","legacy","I have read and understood the information shown above","legacy","legacy","red","0","neutral","uniform","1","1","1","NA","0","0","0","0","0","8","8","8","8","8","0","0","5","0","8","8","0","0","NA","0","8","0","8","NA","0","8","8","12/06/16 18:00:44","The main experiment item","yes","v","W:\Sussex\Consciousness and control\Exp 1 - stroop suggestion and PCE\Methods\Palfi_script","no","mono","no","18","no","black","no","Ok","NA","no","Male","768","legacy","C:/Users/User/Dropbox/Sussex/Consciousness and control/Exp 1 - stroop suggestion and PCE/Methods/Palfi_script/laptop_size/subject-6.csv","legacy","Interactive Ising","3.0.2","0","v","v","space","NA","819","819","2003","NA","2","legacy","1024","2","48000","-16","experiment","6","even","NA","NA","606675","660528","601392","689959","689387","689924","690780","691768","NA","NA","660528","583178","691016","689422","NA","2323","NA","NA","684549","577856","692218","NA","662532","689385","689959","Stroop IC","10","79262","12","yes","1366","KNIFE"
"22","84.6153846154","yes","84.6153846154","25","6148","6148","#ffffff","no","practice","v;b;n;m","legacy","I have read and understood the information shown above","legacy","legacy","#ffef36","0","con","uniform","1","1","1","NA","0","0","0","0","0","9","9","9","9","9","0","0","5","0","9","9","0","0","NA","0","9","0","9","NA","0","9","9","12/06/16 18:00:44","The main experiment item","yes","m","W:\Sussex\Consciousness and control\Exp 1 - stroop suggestion and PCE\Methods\Palfi_script","no","mono","no","18","no","black","no","Ok","NA","no","Male","768","legacy","C:/Users/User/Dropbox/Sussex/Consciousness and control/Exp 1 - stroop suggestion and PCE/Methods/Palfi_script/laptop_size/subject-6.csv","legacy","Interactive Ising","3.0.2","0","m","m","space","NA","663","663","2003","NA","2","legacy","1024","2","48000","-16","experiment","6","even","NA","NA","606675","660528","601392","692929","692357","692894","693596","694586","NA","NA","660528","583178","693834","692392","NA","2323","NA","NA","684549","577856","695036","NA","662532","692355","692929","Stroop IC","11","79925","13","yes","1366","YELLOW"
"21","85.7142857143","yes","85.7142857143","25","5745","5745","#ffffff","no","practice","v;b;n;m","legacy","I have read and understood the information shown above","legacy","legacy","green","0","con","uniform","1","1","1","NA","0","0","0","0","0","10","10","10","10","10","0","0","5","0","10","10","0","0","NA","0","10","0","10","NA","0","10","10","12/06/16 18:00:44","The main experiment item","yes","n","W:\Sussex\Consciousness and control\Exp 1 - stroop suggestion and PCE\Methods\Palfi_script","no","mono","no","18","no","black","no","Ok","NA","no","Male","768","legacy","C:/Users/User/Dropbox/Sussex/Consciousness and control/Exp 1 - stroop suggestion and PCE/Methods/Palfi_script/laptop_size/subject-6.csv","legacy","Interactive Ising","3.0.2","0","n","n","space","NA","516","516","2003","NA","2","legacy","1024","2","48000","-16","experiment","6","even","NA","NA","606675","660528","601392","695740","695168","695705","696258","697247","NA","NA","660528","583178","696495","695203","NA","2323","NA","NA","684549","577856","697697","NA","662532","695166","695740","Stroop IC","12","80441","14","yes","1366","GREEN"
"8","80","yes","80","25","5456","5456","#ffffff","no","practice","v;b;n;m","legacy","I have read and understood the information shown above","legacy","legacy","green","0","inc","uniform","0","0","1","NA","0","0","0","0","0","11","11","11","11","11","0","0","5","0","11","11","0","0","NA","0","11","0","11","NA","0","11","11","12/06/16 18:00:44","The main experiment item","yes","n","W:\Sussex\Consciousness and control\Exp 1 - stroop suggestion and PCE\Methods\Palfi_script","no","mono","no","18","no","black","no","Ok","NA","no","Male","768","legacy","C:/Users/User/Dropbox/Sussex/Consciousness and control/Exp 1 - stroop suggestion and PCE/Methods/Palfi_script/laptop_size/subject-6.csv","legacy","Interactive Ising","3.0.2","0","m","m","space","NA","1408","1408","2003","NA","2","legacy","1024","2","48000","-16","experiment","6","even","NA","NA","606675","660528","601392","698510","697937","698474","699921","700909","NA","NA","660528","583178","696495","697972","NA","2323","NA","NA","700157","577856","701359","NA","662532","697935","698510","Stroop IC","12","81849","15","yes","1366","BLUE"
"2","81.25","yes","81.25","25","5170","5170","#ffffff","no","practice","v;b;n;m","legacy","I have read and understood the information shown above","legacy","legacy","red","0","inc","uniform","1","1","1","NA","0","0","0","0","0","12","12","12","12","12","0","0","5","0","12","12","0","0","NA","0","12","0","12","NA","0","12","12","12/06/16 18:00:44","The main experiment item","yes","v","W:\Sussex\Consciousness and control\Exp 1 - stroop suggestion and PCE\Methods\Palfi_script","no","mono","no","18","no","black","no","Ok","NA","no","Male","768","legacy","C:/Users/User/Dropbox/Sussex/Consciousness and control/Exp 1 - stroop suggestion and PCE/Methods/Palfi_script/laptop_size/subject-6.csv","legacy","Interactive Ising","3.0.2","0","v","v","space","NA","885","885","2003","NA","2","legacy","1024","2","48000","-16","experiment","6","even","NA","NA","606675","660528","601392","702082","701509","702047","702970","703960","NA","NA","660528","583178","703208","701545","NA","2323","NA","NA","700157","577856","704410","NA","662532","701507","702082","Stroop IC","13","82734","16","yes","1366","GREEN"
"5","82.3529411765","yes","82.3529411765","25","4928","4928","#ffffff","no","practice","v;b;n;m","legacy","I have read and understood the information shown above","legacy","legacy","blue","0","inc","uniform","1","1","1","NA","0","0","0","0","0","13","13","13","13","13","0","0","5","0","13","13","0","0","NA","0","13","0","13","NA","0","13","13","12/06/16 18:00:44","The main experiment item","yes","b","W:\Sussex\Consciousness and control\Exp 1 - stroop suggestion and PCE\Methods\Palfi_script","no","mono","no","18","no","black","no","Ok","NA","no","Male","768","legacy","C:/Users/User/Dropbox/Sussex/Consciousness and control/Exp 1 - stroop suggestion and PCE/Methods/Palfi_script/laptop_size/subject-6.csv","legacy","Interactive Ising","3.0.2","0","b","b","space","NA","1058","1058","2003","NA","2","legacy","1024","2","48000","-16","experiment","6","even","NA","NA","606675","660528","601392","705155","704583","705120","706216","707204","NA","NA","660528","583178","706452","704618","NA","2323","NA","NA","700157","577856","707654","NA","662532","704581","705155","Stroop IC","14","83792","17","yes","1366","GREEN"
"9","83.3333333333","yes","83.3333333333","25","4728","4728","#ffffff","no","practice","v;b;n;m","legacy","I have read and understood the information shown above","legacy","legacy","green","0","inc","uniform","1","1","1","NA","0","0","0","0","0","14","14","14","14","14","0","0","5","0","14","14","0","0","NA","0","14","0","14","NA","0","14","14","12/06/16 18:00:44","The main experiment item","yes","n","W:\Sussex\Consciousness and control\Exp 1 - stroop suggestion and PCE\Methods\Palfi_script","no","mono","no","18","no","black","no","Ok","NA","no","Male","768","legacy","C:/Users/User/Dropbox/Sussex/Consciousness and control/Exp 1 - stroop suggestion and PCE/Methods/Palfi_script/laptop_size/subject-6.csv","legacy","Interactive Ising","3.0.2","0","n","n","space","NA","1314","1314","2003","NA","2","legacy","1024","2","48000","-16","experiment","6","even","NA","NA","606675","660528","601392","708401","707829","708366","709718","710708","NA","NA","660528","583178","709954","707864","NA","2323","NA","NA","700157","577856","711158","NA","662532","707826","708401","Stroop IC","15","85106","18","yes","1366","YELLOW"
"35","84.2105263158","yes","84.2105263158","25","4520","4520","#ffffff","no","practice","v;b;n;m","legacy","I have read and understood the information shown above","legacy","legacy","#ffef36","0","neutral","uniform","1","1","1","NA","0","0","0","0","0","15","15","15","15","15","0","0","5","0","15","15","0","0","NA","0","15","0","15","NA","0","15","15","12/06/16 18:00:44","The main experiment item","yes","m","W:\Sussex\Consciousness and control\Exp 1 - stroop suggestion and PCE\Methods\Palfi_script","no","mono","no","18","no","black","no","Ok","NA","no","Male","768","legacy","C:/Users/User/Dropbox/Sussex/Consciousness and control/Exp 1 - stroop suggestion and PCE/Methods/Palfi_script/laptop_size/subject-6.csv","legacy","Interactive Ising","3.0.2","0","m","m","space","NA","780","780","2003","NA","2","legacy","1024","2","48000","-16","experiment","6","even","NA","NA","606675","660528","601392","711864","711292","711829","712647","713638","NA","NA","660528","583178","712886","711327","NA","2323","NA","NA","700157","577856","714088","NA","662532","711290","711864","Stroop IC","16","85886","19","yes","1366","SHIP"
"28","85","yes","85","25","4345","4345","#ffffff","no","practice","v;b;n;m","legacy","I have read and understood the information shown above","legacy","legacy","blue","0","neutral","uniform","1","1","1","NA","0","0","0","0","0","16","16","16","16","16","0","0","5","0","16","16","0","0","NA","0","16","0","16","NA","0","16","16","12/06/16 18:00:44","The main experiment item","yes","b","W:\Sussex\Consciousness and control\Exp 1 - stroop suggestion and PCE\Methods\Palfi_script","no","mono","no","18","no","black","no","Ok","NA","no","Male","768","legacy","C:/Users/User/Dropbox/Sussex/Consciousness and control/Exp 1 - stroop suggestion and PCE/Methods/Palfi_script/laptop_size/subject-6.csv","legacy","Interactive Ising","3.0.2","0","b","b","space","NA","1021","1021","2003","NA","2","legacy","1024","2","48000","-16","experiment","6","even","NA","NA","606675","660528","601392","714843","714271","714808","715867","716859","NA","NA","660528","583178","716105","714306","NA","2323","NA","NA","700157","577856","717309","NA","662532","714269","714843","Stroop IC","17","86907","20","yes","1366","LOT"
"16","85.7142857143","yes","85.7142857143","25","4178","4178","#ffffff","no","practice","v;b;n;m","legacy","I have read and understood the information shown above","legacy","legacy","blue","0","con","uniform","1","1","1","NA","0","0","0","0","0","17","17","17","17","17","0","0","5","0","17","17","0","0","NA","0","17","0","17","NA","0","17","17","12/06/16 18:00:44","The main experiment item","yes","b","W:\Sussex\Consciousness and control\Exp 1 - stroop suggestion and PCE\Methods\Palfi_script","no","mono","no","18","no","black","no","Ok","NA","no","Male","768","legacy","C:/Users/User/Dropbox/Sussex/Consciousness and control/Exp 1 - stroop suggestion and PCE/Methods/Palfi_script/laptop_size/subject-6.csv","legacy","Interactive Ising","3.0.2","0","b","b","space","NA","837","837","2003","NA","2","legacy","1024","2","48000","-16","experiment","6","even","NA","NA","606675","660528","601392","718109","717537","718074","718949","719938","NA","NA","660528","583178","719186","717572","NA","2323","NA","NA","700157","577856","720388","NA","662532","717535","718109","Stroop IC","18","87744","21","yes","1366","BLUE"
"33","81.8181818182","yes","81.8181818182","25","4031","4031","#ffffff","no","practice","v;b;n;m","legacy","I have read and understood the information shown above","legacy","legacy","green","0","neutral","uniform","0","0","1","NA","0","0","0","0","0","18","18","18","18","18","0","0","5","0","18","18","0","0","NA","0","18","0","18","NA","0","18","18","12/06/16 18:00:44","The main experiment item","yes","n","W:\Sussex\Consciousness and control\Exp 1 - stroop suggestion and PCE\Methods\Palfi_script","no","mono","no","18","no","black","no","Ok","NA","no","Male","768","legacy","C:/Users/User/Dropbox/Sussex/Consciousness and control/Exp 1 - stroop suggestion and PCE/Methods/Palfi_script/laptop_size/subject-6.csv","legacy","Interactive Ising","3.0.2","0","b","b","space","NA","950","950","2003","NA","2","legacy","1024","2","48000","-16","experiment","6","even","NA","NA","606675","660528","601392","721142","720569","721107","722095","723084","NA","NA","660528","583178","719186","720604","NA","2323","NA","NA","722332","577856","723534","NA","662532","720567","721142","Stroop IC","18","88694","22","yes","1366","FLOWER"
"3","82.6086956522","yes","82.6086956522","25","3901","3901","#ffffff","no","practice","v;b;n;m","legacy","I have read and understood the information shown above","legacy","legacy","red","0","inc","uniform","1","1","1","NA","0","0","0","0","0","19","19","19","19","19","0","0","5","0","19","19","0","0","NA","0","19","0","19","NA","0","19","19","12/06/16 18:00:44","The main experiment item","yes","v","W:\Sussex\Consciousness and control\Exp 1 - stroop suggestion and PCE\Methods\Palfi_script","no","mono","no","18","no","black","no","Ok","NA","no","Male","768","legacy","C:/Users/User/Dropbox/Sussex/Consciousness and control/Exp 1 - stroop suggestion and PCE/Methods/Palfi_script/laptop_size/subject-6.csv","legacy","Interactive Ising","3.0.2","0","v","v","space","NA","1048","1048","2003","NA","2","legacy","1024","2","48000","-16","experiment","6","even","NA","NA","606675","660528","601392","724343","723771","724308","725393","726382","NA","NA","660528","583178","725630","723806","NA","2323","NA","NA","722332","577856","726832","NA","662532","723767","724343","Stroop IC","19","89742","23","yes","1366","YELLOW"
"24","83.3333333333","yes","83.3333333333","25","3771","3771","#ffffff","no","practice","v;b;n;m","legacy","I have read and understood the information shown above","legacy","legacy","#ffef36","0","con","uniform","1","1","1","NA","0","0","0","0","0","20","20","20","20","20","0","0","5","0","20","20","0","0","NA","0","20","0","20","NA","0","20","20","12/06/16 18:00:44","The main experiment item","yes","m","W:\Sussex\Consciousness and control\Exp 1 - stroop suggestion and PCE\Methods\Palfi_script","no","mono","no","18","no","black","no","Ok","NA","no","Male","768","legacy","C:/Users/User/Dropbox/Sussex/Consciousness and control/Exp 1 - stroop suggestion and PCE/Methods/Palfi_script/laptop_size/subject-6.csv","legacy","Interactive Ising","3.0.2","0","m","m","space","NA","776","776","2003","NA","2","legacy","1024","2","48000","-16","experiment","6","even","NA","NA","606675","660528","601392","727582","727010","727547","728361","729351","NA","NA","660528","583178","728597","727045","NA","2323","NA","NA","722332","577856","729801","NA","662532","727007","727582","Stroop IC","20","90518","24","yes","1366","YELLOW"
"32","80","yes","80","25","3659","3659","#ffffff","no","practice","v;b;n;m","legacy","I have read and understood the information shown above","legacy","legacy","green","0","neutral","uniform","0","0","1","NA","0","0","0","0","0","21","21","21","21","21","0","0","5","0","21","21","0","0","NA","0","21","0","21","NA","0","21","21","12/06/16 18:00:44","The main experiment item","yes","n","W:\Sussex\Consciousness and control\Exp 1 - stroop suggestion and PCE\Methods\Palfi_script","no","mono","no","18","no","black","no","Ok","NA","no","Male","768","legacy","C:/Users/User/Dropbox/Sussex/Consciousness and control/Exp 1 - stroop suggestion and PCE/Methods/Palfi_script/laptop_size/subject-6.csv","legacy","Interactive Ising","3.0.2","0","b","b","space","NA","981","981","2003","NA","2","legacy","1024","2","48000","-16","experiment","6","even","NA","NA","606675","660528","601392","730660","730087","730625","731646","732636","NA","NA","660528","583178","728597","730123","NA","2323","NA","NA","731884","577856","733086","NA","662532","730085","730660","Stroop IC","20","91499","25","yes","1366","SHIP"
"23","80.7692307692","yes","80.7692307692","25","3546","3546","#ffffff","no","practice","v;b;n;m","legacy","I have read and understood the information shown above","legacy","legacy","#ffef36","0","con","uniform","1","1","1","NA","0","0","0","0","0","22","22","22","22","22","0","0","5","0","22","22","0","0","NA","0","22","0","22","NA","0","22","22","12/06/16 18:00:44","The main experiment item","yes","m","W:\Sussex\Consciousness and control\Exp 1 - stroop suggestion and PCE\Methods\Palfi_script","no","mono","no","18","no","black","no","Ok","NA","no","Male","768","legacy","C:/Users/User/Dropbox/Sussex/Consciousness and control/Exp 1 - stroop suggestion and PCE/Methods/Palfi_script/laptop_size/subject-6.csv","legacy","Interactive Ising","3.0.2","0","m","m","space","NA","720","720","2003","NA","2","legacy","1024","2","48000","-16","experiment","6","even","NA","NA","606675","660528","601392","733794","733222","733759","734517","735506","NA","NA","660528","583178","734753","733257","NA","2323","NA","NA","731884","577856","735956","NA","662532","733220","733794","Stroop IC","21","92219","26","yes","1366","YELLOW"
"29","81.4814814815","yes","81.4814814815","25","3451","3451","#ffffff","no","practice","v;b;n;m","legacy","I have read and understood the information shown above","legacy","legacy","blue","0","neutral","uniform","1","1","1","NA","0","0","0","0","0","23","23","23","23","23","0","0","5","0","23","23","0","0","NA","0","23","0","23","NA","0","23","23","12/06/16 18:00:44","The main experiment item","yes","b","W:\Sussex\Consciousness and control\Exp 1 - stroop suggestion and PCE\Methods\Palfi_script","no","mono","no","18","no","black","no","Ok","NA","no","Male","768","legacy","C:/Users/User/Dropbox/Sussex/Consciousness and control/Exp 1 - stroop suggestion and PCE/Methods/Palfi_script/laptop_size/subject-6.csv","legacy","Interactive Ising","3.0.2","0","b","b","space","NA","958","958","2003","NA","2","legacy","1024","2","48000","-16","experiment","6","even","NA","NA","606675","660528","601392","736723","736150","736688","737684","738673","NA","NA","660528","583178","737921","736186","NA","2323","NA","NA","731884","577856","739123","NA","662532","736148","736723","Stroop IC","22","93177","27","yes","1366","KNIFE"
"10","82.1428571429","yes","82.1428571429","25","3356","3356","#ffffff","no","practice","v;b;n;m","legacy","I have read and understood the information shown above","legacy","legacy","#ffef36","0","inc","uniform","1","1","1","NA","0","0","0","0","0","24","24","24","24","24","0","0","5","0","24","24","0","0","NA","0","24","0","24","NA","0","24","24","12/06/16 18:00:44","The main experiment item","yes","m","W:\Sussex\Consciousness and control\Exp 1 - stroop suggestion and PCE\Methods\Palfi_script","no","mono","no","18","no","black","no","Ok","NA","no","Male","768","legacy","C:/Users/User/Dropbox/Sussex/Consciousness and control/Exp 1 - stroop suggestion and PCE/Methods/Palfi_script/laptop_size/subject-6.csv","legacy","Interactive Ising","3.0.2","0","m","m","space","NA","805","805","2003","NA","2","legacy","1024","2","48000","-16","experiment","6","even","NA","NA","606675","660528","601392","739894","739322","739859","740701","741691","NA","NA","660528","583178","740938","739357","NA","2323","NA","NA","731884","577856","742141","NA","662532","739319","739894","Stroop IC","23","93982","28","yes","1366","RED"
"36","82.7586206897","yes","82.7586206897","25","3277","3277","#ffffff","no","practice","v;b;n;m","legacy","I have read and understood the information shown above","legacy","legacy","#ffef36","0","neutral","uniform","1","1","1","NA","0","0","0","0","0","25","25","25","25","25","0","0","5","0","25","25","0","0","NA","0","25","0","25","NA","0","25","25","12/06/16 18:00:44","The main experiment item","yes","m","W:\Sussex\Consciousness and control\Exp 1 - stroop suggestion and PCE\Methods\Palfi_script","no","mono","no","18","no","black","no","Ok","NA","no","Male","768","legacy","C:/Users/User/Dropbox/Sussex/Consciousness and control/Exp 1 - stroop suggestion and PCE/Methods/Palfi_script/laptop_size/subject-6.csv","legacy","Interactive Ising","3.0.2","0","m","m","space","NA","1077","1077","2003","NA","2","legacy","1024","2","48000","-16","experiment","6","even","NA","NA","606675","660528","601392","742876","742304","742841","743955","744944","NA","NA","660528","583178","744192","742339","NA","2323","NA","NA","731884","577856","745394","NA","662532","742301","742876","Stroop IC","24","95059","29","yes","1366","KNIFE"
"17","83.3333333333","yes","83.3333333333","25","3198","3198","#ffffff","no","practice","v;b;n;m","legacy","I have read and understood the information shown above","legacy","legacy","blue","0","con","uniform","1","1","1","NA","0","0","0","0","0","26","26","26","26","26","0","0","5","0","26","26","0","0","NA","0","26","0","26","NA","0","26","26","12/06/16 18:00:44","The main experiment item","yes","b","W:\Sussex\Consciousness and control\Exp 1 - stroop suggestion and PCE\Methods\Palfi_script","no","mono","no","18","no","black","no","Ok","NA","no","Male","768","legacy","C:/Users/User/Dropbox/Sussex/Consciousness and control/Exp 1 - stroop suggestion and PCE/Methods/Palfi_script/laptop_size/subject-6.csv","legacy","Interactive Ising","3.0.2","0","b","b","space","NA","886","886","2003","NA","2","legacy","1024","2","48000","-16","experiment","6","even","NA","NA","606675","660528","601392","746103","745531","746068","746992","747980","NA","NA","660528","583178","747228","745566","NA","2323","NA","NA","731884","577856","748430","NA","662532","745528","746103","Stroop IC","25","95945","30","yes","1366","BLUE"
"20","80.6451612903","yes","80.6451612903","25","3140","3140","#ffffff","no","practice","v;b;n;m","legacy","I have read and understood the information shown above","legacy","legacy","green","0","con","uniform","0","0","1","NA","0","0","0","0","0","27","27","27","27","27","0","0","5","0","27","27","0","0","NA","0","27","0","27","NA","0","27","27","12/06/16 18:00:44","The main experiment item","yes","n","W:\Sussex\Consciousness and control\Exp 1 - stroop suggestion and PCE\Methods\Palfi_script","no","mono","no","18","no","black","no","Ok","NA","no","Male","768","legacy","C:/Users/User/Dropbox/Sussex/Consciousness and control/Exp 1 - stroop suggestion and PCE/Methods/Palfi_script/laptop_size/subject-6.csv","legacy","Interactive Ising","3.0.2","0","b","b","space","NA","1423","1423","2003","NA","2","legacy","1024","2","48000","-16","experiment","6","even","NA","NA","606675","660528","601392","749144","748572","749109","750569","751558","NA","NA","660528","583178","747228","748607","NA","2323","NA","NA","750806","577856","752008","NA","662532","748570","749144","Stroop IC","25","97368","31","yes","1366","GREEN"
"18","81.25","yes","81.25","25","3063","3063","#ffffff","no","practice","v;b;n;m","legacy","I have read and understood the information shown above","legacy","legacy","blue","0","con","uniform","1","1","1","NA","0","0","0","0","0","28","28","28","28","28","0","0","5","0","28","28","0","0","NA","0","28","0","28","NA","0","28","28","12/06/16 18:00:44","The main experiment item","yes","b","W:\Sussex\Consciousness and control\Exp 1 - stroop suggestion and PCE\Methods\Palfi_script","no","mono","no","18","no","black","no","Ok","NA","no","Male","768","legacy","C:/Users/User/Dropbox/Sussex/Consciousness and control/Exp 1 - stroop suggestion and PCE/Methods/Palfi_script/laptop_size/subject-6.csv","legacy","Interactive Ising","3.0.2","0","b","b","space","NA","668","668","2003","NA","2","legacy","1024","2","48000","-16","experiment","6","even","NA","NA","606675","660528","601392","752715","752142","752680","753386","754376","NA","NA","660528","583178","753624","752178","NA","2323","NA","NA","750806","577856","754826","NA","662532","752140","752715","Stroop IC","26","98036","32","yes","1366","BLUE"
"11","81.8181818182","yes","81.8181818182","25","2990","2990","#ffffff","no","practice","v;b;n;m","legacy","I have read and understood the information shown above","legacy","legacy","#ffef36","0","inc","uniform","1","1","1","NA","0","0","0","0","0","29","29","29","29","29","0","0","5","0","29","29","0","0","NA","0","29","0","29","NA","0","29","29","12/06/16 18:00:44","The main experiment item","yes","m","W:\Sussex\Consciousness and control\Exp 1 - stroop suggestion and PCE\Methods\Palfi_script","no","mono","no","18","no","black","no","Ok","NA","no","Male","768","legacy","C:/Users/User/Dropbox/Sussex/Consciousness and control/Exp 1 - stroop suggestion and PCE/Methods/Palfi_script/laptop_size/subject-6.csv","legacy","Interactive Ising","3.0.2","0","m","m","space","NA","659","659","2003","NA","2","legacy","1024","2","48000","-16","experiment","6","even","NA","NA","606675","660528","601392","755570","754998","755535","756235","757225","NA","NA","660528","583178","756473","755033","NA","2323","NA","NA","750806","577856","757676","NA","662532","754996","755570","Stroop IC","27","98695","33","yes","1366","BLUE"
"34","82.3529411765","yes","82.3529411765","25","2954","2954","#ffffff","no","practice","v;b;n;m","legacy","I have read and understood the information shown above","legacy","legacy","#ffef36","0","neutral","uniform","1","1","1","NA","0","0","0","0","0","30","30","30","30","30","0","0","5","0","30","30","0","0","NA","0","30","0","30","NA","0","30","30","12/06/16 18:00:44","The main experiment item","yes","m","W:\Sussex\Consciousness and control\Exp 1 - stroop suggestion and PCE\Methods\Palfi_script","no","mono","no","18","no","black","no","Ok","NA","no","Male","768","legacy","C:/Users/User/Dropbox/Sussex/Consciousness and control/Exp 1 - stroop suggestion and PCE/Methods/Palfi_script/laptop_size/subject-6.csv","legacy","Interactive Ising","3.0.2","0","m","m","space","NA","1754","1754","2003","NA","2","legacy","1024","2","48000","-16","experiment","6","even","NA","NA","606675","660528","601392","758377","757802","758341","760135","761123","NA","NA","660528","583178","760371","757839","NA","2323","NA","NA","750806","577856","761573","NA","662532","757800","758376","Stroop IC","28","100449","34","yes","1366","LOT"
"19","82.8571428571","yes","82.8571428571","25","2902","2902","#ffffff","no","practice","v;b;n;m","legacy","I have read and understood the information shown above","legacy","legacy","green","0","con","uniform","1","1","1","NA","0","0","0","0","0","31","31","31","31","31","0","0","5","0","31","31","0","0","NA","0","31","0","31","NA","0","31","31","12/06/16 18:00:44","The main experiment item","yes","n","W:\Sussex\Consciousness and control\Exp 1 - stroop suggestion and PCE\Methods\Palfi_script","no","mono","no","18","no","black","no","Ok","NA","no","Male","768","legacy","C:/Users/User/Dropbox/Sussex/Consciousness and control/Exp 1 - stroop suggestion and PCE/Methods/Palfi_script/laptop_size/subject-6.csv","legacy","Interactive Ising","3.0.2","0","n","n","space","NA","1139","1139","2003","NA","2","legacy","1024","2","48000","-16","experiment","6","even","NA","NA","606675","660528","601392","762278","761705","762243","763420","764408","NA","NA","660528","583178","763656","761741","NA","2323","NA","NA","750806","577856","764858","NA","662532","761703","762278","Stroop IC","29","101588","35","yes","1366","GREEN"
"27","83.3333333333","yes","83.3333333333","25","2845","2845","#ffffff","no","practice","v;b;n;m","legacy","I have read and understood the information shown above","legacy","legacy","red","0","neutral","uniform","1","1","1","NA","0","0","0","0","0","32","32","32","32","32","0","0","5","0","32","32","0","0","NA","0","32","0","32","NA","0","32","32","12/06/16 18:00:44","The main experiment item","yes","v","W:\Sussex\Consciousness and control\Exp 1 - stroop suggestion and PCE\Methods\Palfi_script","no","mono","no","18","no","black","no","Ok","NA","no","Male","768","legacy","C:/Users/User/Dropbox/Sussex/Consciousness and control/Exp 1 - stroop suggestion and PCE/Methods/Palfi_script/laptop_size/subject-6.csv","legacy","Interactive Ising","3.0.2","0","v","v","space","NA","858","858","2003","NA","2","legacy","1024","2","48000","-16","experiment","6","even","NA","NA","606675","660528","601392","765580","765008","765545","766441","767429","NA","NA","660528","583178","766677","765043","NA","2323","NA","NA","750806","577856","767879","NA","662532","765006","765580","Stroop IC","30","102446","36","yes","1366","FLOWER"
"12","83.7837837838","yes","83.7837837838","25","2791","2791","#ffffff","no","practice","v;b;n;m","legacy","I have read and understood the information shown above","legacy","legacy","#ffef36","0","inc","uniform","1","1","1","NA","0","0","0","0","0","33","33","33","33","33","0","0","5","0","33","33","0","0","NA","0","33","0","33","NA","0","33","33","12/06/16 18:00:44","The main experiment item","yes","m","W:\Sussex\Consciousness and control\Exp 1 - stroop suggestion and PCE\Methods\Palfi_script","no","mono","no","18","no","black","no","Ok","NA","no","Male","768","legacy","C:/Users/User/Dropbox/Sussex/Consciousness and control/Exp 1 - stroop suggestion and PCE/Methods/Palfi_script/laptop_size/subject-6.csv","legacy","Interactive Ising","3.0.2","0","m","m","space","NA","846","846","2003","NA","2","legacy","1024","2","48000","-16","experiment","6","even","NA","NA","606675","660528","601392","768636","768064","768601","769486","770476","NA","NA","660528","583178","769722","768099","NA","2323","NA","NA","750806","577856","770926","NA","662532","768061","768636","Stroop IC","31","103292","37","yes","1366","GREEN"
"6","84.2105263158","yes","84.2105263158","25","2742","2742","#ffffff","no","practice","v;b;n;m","legacy","I have read and understood the information shown above","legacy","legacy","blue","0","inc","uniform","1","1","1","NA","0","0","0","0","0","34","34","34","34","34","0","0","5","0","34","34","0","0","NA","0","34","0","34","NA","0","34","34","12/06/16 18:00:44","The main experiment item","yes","b","W:\Sussex\Consciousness and control\Exp 1 - stroop suggestion and PCE\Methods\Palfi_script","no","mono","no","18","no","black","no","Ok","NA","no","Male","768","legacy","C:/Users/User/Dropbox/Sussex/Consciousness and control/Exp 1 - stroop suggestion and PCE/Methods/Palfi_script/laptop_size/subject-6.csv","legacy","Interactive Ising","3.0.2","0","b","b","space","NA","937","937","2003","NA","2","legacy","1024","2","48000","-16","experiment","6","even","NA","NA","606675","660528","601392","771636","771064","771601","772577","773567","NA","NA","660528","583178","772813","771099","NA","2323","NA","NA","750806","577856","774017","NA","662532","771061","771636","Stroop IC","32","104229","38","yes","1366","YELLOW"
"13","84.6153846154","yes","84.6153846154","25","2686","2686","#ffffff","no","practice","v;b;n;m","legacy","I have read and understood the information shown above","legacy","legacy","red","0","con","uniform","1","1","1","NA","0","0","0","0","0","35","35","35","35","35","0","0","5","0","35","35","0","0","NA","0","35","0","35","NA","0","35","35","12/06/16 18:00:44","The main experiment item","yes","v","W:\Sussex\Consciousness and control\Exp 1 - stroop suggestion and PCE\Methods\Palfi_script","no","mono","no","18","no","black","no","Ok","NA","no","Male","768","legacy","C:/Users/User/Dropbox/Sussex/Consciousness and control/Exp 1 - stroop suggestion and PCE/Methods/Palfi_script/laptop_size/subject-6.csv","legacy","Interactive Ising","3.0.2","0","v","v","space","NA","557","557","2003","NA","2","legacy","1024","2","48000","-16","experiment","6","even","NA","NA","606675","660528","601392","774779","774206","774744","775339","776328","NA","NA","660528","583178","775575","774242","NA","2323","NA","NA","750806","577856","776778","NA","662532","774204","774779","Stroop IC","33","104786","39","yes","1366","RED"
"107","85.3658536585","yes","85.3658536585","25","2929","2929","#ffffff","no","I","v;b;n;m","legacy","I have read and understood the information shown above","legacy","legacy","#ffef36","0","con","uniform","1","1","1","NA","0","0","0","0","0","36","36","36","36","36","0","0","5","0","36","36","0","0","NA","0","36","0","36","NA","0","36","36","12/06/16 18:00:44","The main experiment item","yes","m","W:\Sussex\Consciousness and control\Exp 1 - stroop suggestion and PCE\Methods\Palfi_script","no","mono","no","18","no","black","no","Ok","NA","no","Male","768","legacy","C:/Users/User/Dropbox/Sussex/Consciousness and control/Exp 1 - stroop suggestion and PCE/Methods/Palfi_script/laptop_size/subject-6.csv","legacy","Interactive Ising","3.0.2","0","m","m","space","NA","684","684","14628","NA","2","legacy","1024","2","48000","-16","experiment","6","even","NA","791436","606675","660528","601392","792110","791538","792075","792796","793787","776807","NA","776807","583178","793033","791573","NA","2323","NA","NA","750806","577856","794237","NA","662532","791536","792110","Stroop IC","35","120098","41","yes","1366","YELLOW"
"111","85.7142857143","yes","85.7142857143","25","2872","2872","#ffffff","no","I","v;b;n;m","legacy","I have read and understood the information shown above","legacy","legacy","red","0","neutral","uniform","1","1","1","NA","0","0","0","0","0","37","37","37","37","37","0","0","5","0","37","37","0","0","NA","0","37","0","37","NA","0","37","37","12/06/16 18:00:44","The main experiment item","yes","v","W:\Sussex\Consciousness and control\Exp 1 - stroop suggestion and PCE\Methods\Palfi_script","no","mono","no","18","no","black","no","Ok","NA","no","Male","768","legacy","C:/Users/User/Dropbox/Sussex/Consciousness and control/Exp 1 - stroop suggestion and PCE/Methods/Palfi_script/laptop_size/subject-6.csv","legacy","Interactive Ising","3.0.2","0","v","v","space","NA","564","564","14628","NA","2","legacy","1024","2","48000","-16","experiment","6","even","NA","791436","606675","660528","601392","794987","794415","794952","795554","796543","776807","NA","776807","583178","795791","794450","NA","2323","NA","NA","750806","577856","796993","NA","662532","794413","794987","Stroop IC","36","120662","42","yes","1366","FLOWER"
"84","86.0465116279","yes","86.0465116279","25","2821","2821","#ffffff","no","I","v;b;n;m","legacy","I have read and understood the information shown above","legacy","legacy","#ffef36","0","inc","uniform","1","1","1","NA","0","0","0","0","0","38","38","38","38","38","0","0","5","0","38","38","0","0","NA","0","38","0","38","NA","0","38","38","12/06/16 18:00:44","The main experiment item","yes","m","W:\Sussex\Consciousness and control\Exp 1 - stroop suggestion and PCE\Methods\Palfi_script","no","mono","no","18","no","black","no","Ok","NA","no","Male","768","legacy","C:/Users/User/Dropbox/Sussex/Consciousness and control/Exp 1 - stroop suggestion and PCE/Methods/Palfi_script/laptop_size/subject-6.csv","legacy","Interactive Ising","3.0.2","0","m","m","space","NA","670","670","14628","NA","2","legacy","1024","2","48000","-16","experiment","6","even","NA","791436","606675","660528","601392","797709","797137","797674","798383","799375","776807","NA","776807","583178","798622","797172","NA","2323","NA","NA","750806","577856","799825","NA","662532","797135","797709","Stroop IC","37","121332","43","yes","1366","BLUE"
"99","86.3636363636","yes","86.3636363636","25","2772","2772","#ffffff","no","I","v;b;n;m","legacy","I have read and understood the information shown above","legacy","legacy","red","0","con","uniform","1","1","1","NA","0","0","0","0","0","39","39","39","39","39","0","0","5","0","39","39","0","0","NA","0","39","0","39","NA","0","39","39","12/06/16 18:00:44","The main experiment item","yes","v","W:\Sussex\Consciousness and control\Exp 1 - stroop suggestion and PCE\Methods\Palfi_script","no","mono","no","18","no","black","no","Ok","NA","no","Male","768","legacy","C:/Users/User/Dropbox/Sussex/Consciousness and control/Exp 1 - stroop suggestion and PCE/Methods/Palfi_script/laptop_size/subject-6.csv","legacy","Interactive Ising","3.0.2","0","v","v","space","NA","659","659","14628","NA","2","legacy","1024","2","48000","-16","experiment","6","even","NA","791436","606675","660528","601392","800548","799976","800513","801210","802206","776807","NA","776807","583178","801451","800011","NA","2323","NA","NA","750806","577856","802656","NA","662532","799974","800548","Stroop IC","38","121991","44","yes","1366","RED"
"17","86.6666666667","yes","86.6666666667","25","2724","2724","#ffffff","no","I","v;b;n;m","legacy","I have read and understood the information shown above","legacy","legacy","red","0","inc","uniform","1","1","1","NA","0","0","0","0","0","40","40","40","40","40","0","0","5","0","40","40","0","0","NA","0","40","0","40","NA","0","40","40","12/06/16 18:00:44","The main experiment item","yes","v","W:\Sussex\Consciousness and control\Exp 1 - stroop suggestion and PCE\Methods\Palfi_script","no","mono","no","18","no","black","no","Ok","NA","no","Male","768","legacy","C:/Users/User/Dropbox/Sussex/Consciousness and control/Exp 1 - stroop suggestion and PCE/Methods/Palfi_script/laptop_size/subject-6.csv","legacy","Interactive Ising","3.0.2","0","v","v","space","NA","616","616","14628","NA","2","legacy","1024","2","48000","-16","experiment","6","even","NA","791436","606675","660528","601392","803425","802852","803390","804044","805033","776807","NA","776807","583178","804280","802888","NA","2323","NA","NA","750806","577856","805483","NA","662532","802850","803425","Stroop IC","39","122607","45","yes","1366","YELLOW"
"109","86.9565217391","yes","86.9565217391","25","2676","2676","#ffffff","no","I","v;b;n;m","legacy","I have read and understood the information shown above","legacy","legacy","red","0","neutral","uniform","1","1","1","NA","0","0","0","0","0","41","41","41","41","41","0","0","5","0","41","41","0","0","NA","0","41","0","41","NA","0","41","41","12/06/16 18:00:44","The main experiment item","yes","v","W:\Sussex\Consciousness and control\Exp 1 - stroop suggestion and PCE\Methods\Palfi_script","no","mono","no","18","no","black","no","Ok","NA","no","Male","768","legacy","C:/Users/User/Dropbox/Sussex/Consciousness and control/Exp 1 - stroop suggestion and PCE/Methods/Palfi_script/laptop_size/subject-6.csv","legacy","Interactive Ising","3.0.2","0","v","v","space","NA","521","521","14628","NA","2","legacy","1024","2","48000","-16","experiment","6","even","NA","791436","606675","660528","601392","806197","805624","806161","806721","807711","776807","NA","776807","583178","806959","805659","NA","2323","NA","NA","750806","577856","808161","NA","662532","805622","806197","Stroop IC","40","123128","46","yes","1366","SHIP"
"23","87.2340425532","yes","87.2340425532","25","2631","2631","#ffffff","no","I","v;b;n;m","legacy","I have read and understood the information shown above","legacy","legacy","red","0","inc","uniform","1","1","1","NA","0","0","0","0","0","42","42","42","42","42","0","0","5","0","42","42","0","0","NA","0","42","0","42","NA","0","42","42","12/06/16 18:00:44","The main experiment item","yes","v","W:\Sussex\Consciousness and control\Exp 1 - stroop suggestion and PCE\Methods\Palfi_script","no","mono","no","18","no","black","no","Ok","NA","no","Male","768","legacy","C:/Users/User/Dropbox/Sussex/Consciousness and control/Exp 1 - stroop suggestion and PCE/Methods/Palfi_script/laptop_size/subject-6.csv","legacy","Interactive Ising","3.0.2","0","v","v","space","NA","543","543","14628","NA","2","legacy","1024","2","48000","-16","experiment","6","even","NA","791436","606675","660528","601392","808905","808332","808870","809451","810442","776807","NA","776807","583178","809688","808368","NA","2323","NA","NA","750806","577856","810892","NA","662532","808330","808905","Stroop IC","41","123671","47","yes","1366","YELLOW"
"72","87.5","yes","87.5","25","2592","2592","#ffffff","no","I","v;b;n;m","legacy","I have read and understood the information shown above","legacy","legacy","green","0","inc","uniform","1","1","1","NA","0","0","0","0","0","43","43","43","43","43","0","0","5","0","43","43","0","0","NA","0","43","0","43","NA","0","43","43","12/06/16 18:00:44","The main experiment item","yes","n","W:\Sussex\Consciousness and control\Exp 1 - stroop suggestion and PCE\Methods\Palfi_script","no","mono","no","18","no","black","no","Ok","NA","no","Male","768","legacy","C:/Users/User/Dropbox/Sussex/Consciousness and control/Exp 1 - stroop suggestion and PCE/Methods/Palfi_script/laptop_size/subject-6.csv","legacy","Interactive Ising","3.0.2","0","n","n","space","NA","762","762","14628","NA","2","legacy","1024","2","48000","-16","experiment","6","even","NA","791436","606675","660528","601392","811595","811022","811559","812360","813348","776807","NA","776807","583178","812596","811057","NA","2323","NA","NA","750806","577856","813798","NA","662532","811020","811594","Stroop IC","42","124433","48","yes","1366","YELLOW"
"103","87.7551020408","yes","87.7551020408","25","2553","2553","#ffffff","no","I","v;b;n;m","legacy","I have read and understood the information shown above","legacy","legacy","green","0","con","uniform","1","1","1","NA","0","0","0","0","0","44","44","44","44","44","0","0","5","0","44","44","0","0","NA","0","44","0","44","NA","0","44","44","12/06/16 18:00:44","The main experiment item","yes","n","W:\Sussex\Consciousness and control\Exp 1 - stroop suggestion and PCE\Methods\Palfi_script","no","mono","no","18","no","black","no","Ok","NA","no","Male","768","legacy","C:/Users/User/Dropbox/Sussex/Consciousness and control/Exp 1 - stroop suggestion and PCE/Methods/Palfi_script/laptop_size/subject-6.csv","legacy","Interactive Ising","3.0.2","0","n","n","space","NA","667","667","14628","NA","2","legacy","1024","2","48000","-16","experiment","6","even","NA","791436","606675","660528","601392","814527","813954","814491","815198","816186","776807","NA","776807","583178","815434","813989","NA","2323","NA","NA","750806","577856","816637","NA","662532","813952","814527","Stroop IC","43","125100","49","yes","1366","GREEN"
"46","88","yes","88","25","2520","2520","#ffffff","no","I","v;b;n;m","legacy","I have read and understood the information shown above","legacy","legacy","blue","0","inc","uniform","1","1","1","NA","0","0","0","0","0","45","45","45","45","45","0","0","5","0","45","45","0","0","NA","0","45","0","45","NA","0","45","45","12/06/16 18:00:44","The main experiment item","yes","b","W:\Sussex\Consciousness and control\Exp 1 - stroop suggestion and PCE\Methods\Palfi_script","no","mono","no","18","no","black","no","Ok","NA","no","Male","768","legacy","C:/Users/User/Dropbox/Sussex/Consciousness and control/Exp 1 - stroop suggestion and PCE/Methods/Palfi_script/laptop_size/subject-6.csv","legacy","Interactive Ising","3.0.2","0","b","b","space","NA","931","931","14628","NA","2","legacy","1024","2","48000","-16","experiment","6","even","NA","791436","606675","660528","601392","817341","816769","817306","818275","819263","776807","NA","776807","583178","818511","816804","NA","2323","NA","NA","750806","577856","819713","NA","662532","816767","817341","Stroop IC","44","126031","50","yes","1366","YELLOW"
"77","88.2352941176","yes","88.2352941176","25","2485","2485","#ffffff","no","I","v;b;n;m","legacy","I have read and understood the information shown above","legacy","legacy","#ffef36","0","inc","uniform","1","1","1","NA","0","0","0","0","0","46","46","46","46","46","0","0","5","0","46","46","0","0","NA","0","46","0","46","NA","0","46","46","12/06/16 18:00:44","The main experiment item","yes","m","W:\Sussex\Consciousness and control\Exp 1 - stroop suggestion and PCE\Methods\Palfi_script","no","mono","no","18","no","black","no","Ok","NA","no","Male","768","legacy","C:/Users/User/Dropbox/Sussex/Consciousness and control/Exp 1 - stroop suggestion and PCE/Methods/Palfi_script/laptop_size/subject-6.csv","legacy","Interactive Ising","3.0.2","0","m","m","space","NA","754","754","14628","NA","2","legacy","1024","2","48000","-16","experiment","6","even","NA","791436","606675","660528","601392","820475","819903","820440","821233","822222","776807","NA","776807","583178","821470","819938","NA","2323","NA","NA","750806","577856","822672","NA","662532","819901","820475","Stroop IC","45","126785","51","yes","1366","RED"
"82","88.4615384615","yes","88.4615384615","25","2450","2450","#ffffff","no","I","v;b;n;m","legacy","I have read and understood the information shown above","legacy","legacy","#ffef36","0","inc","uniform","1","1","1","NA","0","0","0","0","0","47","47","47","47","47","0","0","5","0","47","47","0","0","NA","0","47","0","47","NA","0","47","47","12/06/16 18:00:44","The main experiment item","yes","m","W:\Sussex\Consciousness and control\Exp 1 - stroop suggestion and PCE\Methods\Palfi_script","no","mono","no","18","no","black","no","Ok","NA","no","Male","768","legacy","C:/Users/User/Dropbox/Sussex/Consciousness and control/Exp 1 - stroop suggestion and PCE/Methods/Palfi_script/laptop_size/subject-6.csv","legacy","Interactive Ising","3.0.2","0","m","m","space","NA","650","650","14628","NA","2","legacy","1024","2","48000","-16","experiment","6","even","NA","791436","606675","660528","601392","823379","822807","823344","824032","825021","776807","NA","776807","583178","824269","822842","NA","2323","NA","NA","750806","577856","825471","NA","662532","822804","823379","Stroop IC","46","127435","52","yes","1366","BLUE"
"86","88.679245283","yes","88.679245283","25","2416","2416","#ffffff","no","I","v;b;n;m","legacy","I have read and understood the information shown above","legacy","legacy","#ffef36","0","inc","uniform","1","1","1","NA","0","0","0","0","0","48","48","48","48","48","0","0","5","0","48","48","0","0","NA","0","48","0","48","NA","0","48","48","12/06/16 18:00:44","The main experiment item","yes","m","W:\Sussex\Consciousness and control\Exp 1 - stroop suggestion and PCE\Methods\Palfi_script","no","mono","no","18","no","black","no","Ok","NA","no","Male","768","legacy","C:/Users/User/Dropbox/Sussex/Consciousness and control/Exp 1 - stroop suggestion and PCE/Methods/Palfi_script/laptop_size/subject-6.csv","legacy","Interactive Ising","3.0.2","0","m","m","space","NA","634","634","14628","NA","2","legacy","1024","2","48000","-16","experiment","6","even","NA","791436","606675","660528","601392","826180","825608","826145","826817","827805","776807","NA","776807","583178","827053","825643","NA","2323","NA","NA","750806","577856","828255","NA","662532","825606","826180","Stroop IC","47","128069","53","yes","1366","BLUE"
"7","87.037037037","yes","87.037037037","25","2389","2389","#ffffff","no","I","v;b;n;m","legacy","I have read and understood the information shown above","legacy","legacy","red","0","inc","uniform","0","0","1","NA","0","0","0","0","0","49","49","49","49","49","0","0","5","0","49","49","0","0","NA","0","49","0","49","NA","0","49","49","12/06/16 18:00:44","The main experiment item","yes","v","W:\Sussex\Consciousness and control\Exp 1 - stroop suggestion and PCE\Methods\Palfi_script","no","mono","no","18","no","black","no","Ok","NA","no","Male","768","legacy","C:/Users/User/Dropbox/Sussex/Consciousness and control/Exp 1 - stroop suggestion and PCE/Methods/Palfi_script/laptop_size/subject-6.csv","legacy","Interactive Ising","3.0.2","0","b","b","space","NA","941","941","14628","NA","2","legacy","1024","2","48000","-16","experiment","6","even","NA","791436","606675","660528","601392","829095","828523","829060","830039","831027","776807","NA","776807","583178","827053","828558","NA","2323","NA","NA","830275","577856","831477","NA","662532","828521","829095","Stroop IC","47","129010","54","yes","1366","BLUE"
"33","87.2727272727","yes","87.2727272727","25","2373","2373","#ffffff","no","I","v;b;n;m","legacy","I have read and understood the information shown above","legacy","legacy","blue","0","inc","uniform","1","1","1","NA","0","0","0","0","0","50","50","50","50","50","0","0","5","0","50","50","0","0","NA","0","50","0","50","NA","0","50","50","12/06/16 18:00:44","The main experiment item","yes","b","W:\Sussex\Consciousness and control\Exp 1 - stroop suggestion and PCE\Methods\Palfi_script","no","mono","no","18","no","black","no","Ok","NA","no","Male","768","legacy","C:/Users/User/Dropbox/Sussex/Consciousness and control/Exp 1 - stroop suggestion and PCE/Methods/Palfi_script/laptop_size/subject-6.csv","legacy","Interactive Ising","3.0.2","0","b","b","space","NA","1506","1506","14628","NA","2","legacy","1024","2","48000","-16","experiment","6","even","NA","791436","606675","660528","601392","832193","831620","832158","833702","834692","776807","NA","776807","583178","833938","831655","NA","2323","NA","NA","830275","577856","835142","NA","662532","831618","832193","Stroop IC","48","130516","55","yes","1366","GREEN"
"91","87.5","yes","87.5","25","2343","2343","#ffffff","no","I","v;b;n;m","legacy","I have read and understood the information shown above","legacy","legacy","#ffef36","0","inc","uniform","1","1","1","NA","0","0","0","0","0","51","51","51","51","51","0","0","5","0","51","51","0","0","NA","0","51","0","51","NA","0","51","51","12/06/16 18:00:44","The main experiment item","yes","m","W:\Sussex\Consciousness and control\Exp 1 - stroop suggestion and PCE\Methods\Palfi_script","no","mono","no","18","no","black","no","Ok","NA","no","Male","768","legacy","C:/Users/User/Dropbox/Sussex/Consciousness and control/Exp 1 - stroop suggestion and PCE/Methods/Palfi_script/laptop_size/subject-6.csv","legacy","Interactive Ising","3.0.2","0","m","m","space","NA","721","721","14628","NA","2","legacy","1024","2","48000","-16","experiment","6","even","NA","791436","606675","660528","601392","835863","835291","835828","836586","837577","776807","NA","776807","583178","836823","835326","NA","2323","NA","NA","830275","577856","838027","NA","662532","835288","835863","Stroop IC","49","131237","56","yes","1366","GREEN"
"38","87.7192982456","yes","87.7192982456","25","2316","2316","#ffffff","no","I","v;b;n;m","legacy","I have read and understood the information shown above","legacy","legacy","blue","0","inc","uniform","1","1","1","NA","0","0","0","0","0","52","52","52","52","52","0","0","5","0","52","52","0","0","NA","0","52","0","52","NA","0","52","52","12/06/16 18:00:44","The main experiment item","yes","b","W:\Sussex\Consciousness and control\Exp 1 - stroop suggestion and PCE\Methods\Palfi_script","no","mono","no","18","no","black","no","Ok","NA","no","Male","768","legacy","C:/Users/User/Dropbox/Sussex/Consciousness and control/Exp 1 - stroop suggestion and PCE/Methods/Palfi_script/laptop_size/subject-6.csv","legacy","Interactive Ising","3.0.2","0","b","b","space","NA","782","782","14628","NA","2","legacy","1024","2","48000","-16","experiment","6","even","NA","791436","606675","660528","601392","838867","838295","838832","839652","840640","776807","NA","776807","583178","839888","838330","NA","2323","NA","NA","830275","577856","841090","NA","662532","838293","838867","Stroop IC","50","132019","57","yes","1366","GREEN"
"74","87.9310344828","yes","87.9310344828","25","2292","2292","#ffffff","no","I","v;b;n;m","legacy","I have read and understood the information shown above","legacy","legacy","#ffef36","0","inc","uniform","1","1","1","NA","0","0","0","0","0","53","53","53","53","53","0","0","5","0","53","53","0","0","NA","0","53","0","53","NA","0","53","53","12/06/16 18:00:44","The main experiment item","yes","m","W:\Sussex\Consciousness and control\Exp 1 - stroop suggestion and PCE\Methods\Palfi_script","no","mono","no","18","no","black","no","Ok","NA","no","Male","768","legacy","C:/Users/User/Dropbox/Sussex/Consciousness and control/Exp 1 - stroop suggestion and PCE/Methods/Palfi_script/laptop_size/subject-6.csv","legacy","Interactive Ising","3.0.2","0","m","m","space","NA","918","918","14628","NA","2","legacy","1024","2","48000","-16","experiment","6","even","NA","791436","606675","660528","601392","841802","841229","841767","842723","843715","776807","NA","776807","583178","842961","841265","NA","2323","NA","NA","830275","577856","844165","NA","662532","841227","841802","Stroop IC","51","132937","58","yes","1366","RED"
"106","88.1355932203","yes","88.1355932203","25","2262","2262","#ffffff","no","I","v;b;n;m","legacy","I have read and understood the information shown above","legacy","legacy","#ffef36","0","con","uniform","1","1","1","NA","0","0","0","0","0","54","54","54","54","54","0","0","5","0","54","54","0","0","NA","0","54","0","54","NA","0","54","54","12/06/16 18:00:44","The main experiment item","yes","m","W:\Sussex\Consciousness and control\Exp 1 - stroop suggestion and PCE\Methods\Palfi_script","no","mono","no","18","no","black","no","Ok","NA","no","Male","768","legacy","C:/Users/User/Dropbox/Sussex/Consciousness and control/Exp 1 - stroop suggestion and PCE/Methods/Palfi_script/laptop_size/subject-6.csv","legacy","Interactive Ising","3.0.2","0","m","m","space","NA","555","555","14628","NA","2","legacy","1024","2","48000","-16","experiment","6","even","NA","791436","606675","660528","601392","844916","844344","844881","845474","846462","776807","NA","776807","583178","845710","844379","NA","2323","NA","NA","830275","577856","846912","NA","662532","844341","844916","Stroop IC","52","133492","59","yes","1366","YELLOW"
"22","88.3333333333","yes","88.3333333333","25","2239","2239","#ffffff","no","I","v;b;n;m","legacy","I have read and understood the information shown above","legacy","legacy","red","0","inc","uniform","1","1","1","NA","0","0","0","0","0","55","55","55","55","55","0","0","5","0","55","55","0","0","NA","0","55","0","55","NA","0","55","55","12/06/16 18:00:44","The main experiment item","yes","v","W:\Sussex\Consciousness and control\Exp 1 - stroop suggestion and PCE\Methods\Palfi_script","no","mono","no","18","no","black","no","Ok","NA","no","Male","768","legacy","C:/Users/User/Dropbox/Sussex/Consciousness and control/Exp 1 - stroop suggestion and PCE/Methods/Palfi_script/laptop_size/subject-6.csv","legacy","Interactive Ising","3.0.2","0","v","v","space","NA","874","874","14628","NA","2","legacy","1024","2","48000","-16","experiment","6","even","NA","791436","606675","660528","601392","847643","847071","847608","848520","849508","776807","NA","776807","583178","848756","847106","NA","2323","NA","NA","830275","577856","849958","NA","662532","847068","847643","Stroop IC","53","134366","60","yes","1366","YELLOW"
"28","88.5245901639","yes","88.5245901639","25","2223","2223","#ffffff","no","I","v;b;n;m","legacy","I have read and understood the information shown above","legacy","legacy","blue","0","inc","uniform","1","1","1","NA","0","0","0","0","0","56","56","56","56","56","0","0","5","0","56","56","0","0","NA","0","56","0","56","NA","0","56","56","12/06/16 18:00:44","The main experiment item","yes","b","W:\Sussex\Consciousness and control\Exp 1 - stroop suggestion and PCE\Methods\Palfi_script","no","mono","no","18","no","black","no","Ok","NA","no","Male","768","legacy","C:/Users/User/Dropbox/Sussex/Consciousness and control/Exp 1 - stroop suggestion and PCE/Methods/Palfi_script/laptop_size/subject-6.csv","legacy","Interactive Ising","3.0.2","0","b","b","space","NA","1280","1280","14628","NA","2","legacy","1024","2","48000","-16","experiment","6","even","NA","791436","606675","660528","601392","850662","850089","850627","851944","852933","776807","NA","776807","583178","852180","850125","NA","2323","NA","NA","830275","577856","853383","NA","662532","850087","850662","Stroop IC","54","135646","61","yes","1366","RED"
"76","88.7096774194","yes","88.7096774194","25","2207","2207","#ffffff","no","I","v;b;n;m","legacy","I have read and understood the information shown above","legacy","legacy","#ffef36","0","inc","uniform","1","1","1","NA","0","0","0","0","0","57","57","57","57","57","0","0","5","0","57","57","0","0","NA","0","57","0","57","NA","0","57","57","12/06/16 18:00:44","The main experiment item","yes","m","W:\Sussex\Consciousness and control\Exp 1 - stroop suggestion and PCE\Methods\Palfi_script","no","mono","no","18","no","black","no","Ok","NA","no","Male","768","legacy","C:/Users/User/Dropbox/Sussex/Consciousness and control/Exp 1 - stroop suggestion and PCE/Methods/Palfi_script/laptop_size/subject-6.csv","legacy","Interactive Ising","3.0.2","0","m","m","space","NA","1232","1232","14628","NA","2","legacy","1024","2","48000","-16","experiment","6","even","NA","791436","606675","660528","601392","854113","853541","854078","855347","856336","776807","NA","776807","583178","855584","853576","NA","2323","NA","NA","830275","577856","856786","NA","662532","853538","854113","Stroop IC","55","136878","62","yes","1366","RED"
"27","88.8888888889","yes","88.8888888889","25","2188","2188","#ffffff","no","I","v;b;n;m","legacy","I have read and understood the information shown above","legacy","legacy","blue","0","inc","uniform","1","1","1","NA","0","0","0","0","0","58","58","58","58","58","0","0","5","0","58","58","0","0","NA","0","58","0","58","NA","0","58","58","12/06/16 18:00:44","The main experiment item","yes","b","W:\Sussex\Consciousness and control\Exp 1 - stroop suggestion and PCE\Methods\Palfi_script","no","mono","no","18","no","black","no","Ok","NA","no","Male","768","legacy","C:/Users/User/Dropbox/Sussex/Consciousness and control/Exp 1 - stroop suggestion and PCE/Methods/Palfi_script/laptop_size/subject-6.csv","legacy","Interactive Ising","3.0.2","0","b","b","space","NA","1006","1006","14628","NA","2","legacy","1024","2","48000","-16","experiment","6","even","NA","791436","606675","660528","601392","857545","856972","857509","858553","859542","776807","NA","776807","583178","858790","857007","NA","2323","NA","NA","830275","577856","859992","NA","662532","856970","857544","Stroop IC","56","137884","63","yes","1366","RED"
"65","89.0625","yes","89.0625","25","2171","2171","#ffffff","no","I","v;b;n;m","legacy","I have read and understood the information shown above","legacy","legacy","green","0","inc","uniform","1","1","1","NA","0","0","0","0","0","59","59","59","59","59","0","0","5","0","59","59","0","0","NA","0","59","0","59","NA","0","59","59","12/06/16 18:00:44","The main experiment item","yes","n","W:\Sussex\Consciousness and control\Exp 1 - stroop suggestion and PCE\Methods\Palfi_script","no","mono","no","18","no","black","no","Ok","NA","no","Male","768","legacy","C:/Users/User/Dropbox/Sussex/Consciousness and control/Exp 1 - stroop suggestion and PCE/Methods/Palfi_script/laptop_size/subject-6.csv","legacy","Interactive Ising","3.0.2","0","n","n","space","NA","1105","1105","14628","NA","2","legacy","1024","2","48000","-16","experiment","6","even","NA","791436","606675","660528","601392","860749","860176","860713","861857","862846","776807","NA","776807","583178","862093","860211","NA","2323","NA","NA","830275","577856","863296","NA","662532","860174","860749","Stroop IC","57","138989","64","yes","1366","YELLOW"
"36","87.6923076923","yes","87.6923076923","25","2151","2151","#ffffff","no","I","v;b;n;m","legacy","I have read and understood the information shown above","legacy","legacy","blue","0","inc","uniform","0","0","1","NA","0","0","0","0","0","60","60","60","60","60","0","0","5","0","60","60","0","0","NA","0","60","0","60","NA","0","60","60","12/06/16 18:00:44","The main experiment item","yes","b","W:\Sussex\Consciousness and control\Exp 1 - stroop suggestion and PCE\Methods\Palfi_script","no","mono","no","18","no","black","no","Ok","NA","no","Male","768","legacy","C:/Users/User/Dropbox/Sussex/Consciousness and control/Exp 1 - stroop suggestion and PCE/Methods/Palfi_script/laptop_size/subject-6.csv","legacy","Interactive Ising","3.0.2","0","m","m","space","NA","861","861","14628","NA","2","legacy","1024","2","48000","-16","experiment","6","even","NA","791436","606675","660528","601392","864029","863457","863994","864893","865881","776807","NA","776807","583178","862093","863492","NA","2323","NA","NA","865129","577856","866331","NA","662532","863455","864029","Stroop IC","57","139850","65","yes","1366","GREEN"
"83","87.8787878788","yes","87.8787878788","25","2129","2129","#ffffff","no","I","v;b;n;m","legacy","I have read and understood the information shown above","legacy","legacy","#ffef36","0","inc","uniform","1","1","1","NA","0","0","0","0","0","61","61","61","61","61","0","0","5","0","61","61","0","0","NA","0","61","0","61","NA","0","61","61","12/06/16 18:00:44","The main experiment item","yes","m","W:\Sussex\Consciousness and control\Exp 1 - stroop suggestion and PCE\Methods\Palfi_script","no","mono","no","18","no","black","no","Ok","NA","no","Male","768","legacy","C:/Users/User/Dropbox/Sussex/Consciousness and control/Exp 1 - stroop suggestion and PCE/Methods/Palfi_script/laptop_size/subject-6.csv","legacy","Interactive Ising","3.0.2","0","m","m","space","NA","692","692","14628","NA","2","legacy","1024","2","48000","-16","experiment","6","even","NA","791436","606675","660528","601392","867078","866506","867043","867773","868761","776807","NA","776807","583178","868009","866541","NA","2323","NA","NA","865129","577856","869211","NA","662532","866504","867078","Stroop IC","58","140542","66","yes","1366","BLUE"
"9","88.0597014925","yes","88.0597014925","25","2112","2112","#ffffff","no","I","v;b;n;m","legacy","I have read and understood the information shown above","legacy","legacy","red","0","inc","uniform","1","1","1","NA","0","0","0","0","0","62","62","62","62","62","0","0","5","0","62","62","0","0","NA","0","62","0","62","NA","0","62","62","12/06/16 18:00:44","The main experiment item","yes","v","W:\Sussex\Consciousness and control\Exp 1 - stroop suggestion and PCE\Methods\Palfi_script","no","mono","no","18","no","black","no","Ok","NA","no","Male","768","legacy","C:/Users/User/Dropbox/Sussex/Consciousness and control/Exp 1 - stroop suggestion and PCE/Methods/Palfi_script/laptop_size/subject-6.csv","legacy","Interactive Ising","3.0.2","0","v","v","space","NA","1024","1024","14628","NA","2","legacy","1024","2","48000","-16","experiment","6","even","NA","791436","606675","660528","601392","869975","869403","869940","871002","871991","776807","NA","776807","583178","871238","869438","NA","2323","NA","NA","865129","577856","872441","NA","662532","869400","869975","Stroop IC","59","141566","67","yes","1366","GREEN"
"25","88.2352941176","yes","88.2352941176","25","2093","2093","#ffffff","no","I","v;b;n;m","legacy","I have read and understood the information shown above","legacy","legacy","blue","0","inc","uniform","1","1","1","NA","0","0","0","0","0","63","63","63","63","63","0","0","5","0","63","63","0","0","NA","0","63","0","63","NA","0","63","63","12/06/16 18:00:44","The main experiment item","yes","b","W:\Sussex\Consciousness and control\Exp 1 - stroop suggestion and PCE\Methods\Palfi_script","no","mono","no","18","no","black","no","Ok","NA","no","Male","768","legacy","C:/Users/User/Dropbox/Sussex/Consciousness and control/Exp 1 - stroop suggestion and PCE/Methods/Palfi_script/laptop_size/subject-6.csv","legacy","Interactive Ising","3.0.2","0","b","b","space","NA","805","805","14628","NA","2","legacy","1024","2","48000","-16","experiment","6","even","NA","791436","606675","660528","601392","873153","872580","873118","873961","874949","776807","NA","776807","583178","874197","872616","NA","2323","NA","NA","865129","577856","875399","NA","662532","872578","873153","Stroop IC","60","142371","68","yes","1366","RED"
"117","86.9565217391","yes","86.9565217391","25","2075","2075","#ffffff","no","I","v;b;n;m","legacy","I have read and understood the information shown above","legacy","legacy","green","0","neutral","uniform","0","0","1","NA","0","0","0","0","0","64","64","64","64","64","0","0","5","0","64","64","0","0","NA","0","64","0","64","NA","0","64","64","12/06/16 18:00:44","The main experiment item","yes","n","W:\Sussex\Consciousness and control\Exp 1 - stroop suggestion and PCE\Methods\Palfi_script","no","mono","no","18","no","black","no","Ok","NA","no","Male","768","legacy","C:/Users/User/Dropbox/Sussex/Consciousness and control/Exp 1 - stroop suggestion and PCE/Methods/Palfi_script/laptop_size/subject-6.csv","legacy","Interactive Ising","3.0.2","0","b","b","space","NA","822","822","14628","NA","2","legacy","1024","2","48000","-16","experiment","6","even","NA","791436","606675","660528","601392","876101","875529","876066","876926","877914","776807","NA","776807","583178","874197","875564","NA","2323","NA","NA","877162","577856","878364","NA","662532","875526","876101","Stroop IC","60","143193","69","yes","1366","FLOWER"
"16","87.1428571429","yes","87.1428571429","25","2057","2057","#ffffff","no","I","v;b;n;m","legacy","I have read and understood the information shown above","legacy","legacy","red","0","inc","uniform","1","1","1","NA","0","0","0","0","0","65","65","65","65","65","0","0","5","0","65","65","0","0","NA","0","65","0","65","NA","0","65","65","12/06/16 18:00:44","The main experiment item","yes","v","W:\Sussex\Consciousness and control\Exp 1 - stroop suggestion and PCE\Methods\Palfi_script","no","mono","no","18","no","black","no","Ok","NA","no","Male","768","legacy","C:/Users/User/Dropbox/Sussex/Consciousness and control/Exp 1 - stroop suggestion and PCE/Methods/Palfi_script/laptop_size/subject-6.csv","legacy","Interactive Ising","3.0.2","0","v","v","space","NA","846","846","14628","NA","2","legacy","1024","2","48000","-16","experiment","6","even","NA","791436","606675","660528","601392","879055","878483","879020","879904","880894","776807","NA","776807","583178","880140","878518","NA","2323","NA","NA","877162","577856","881344","NA","662532","878481","879055","Stroop IC","61","144039","70","yes","1366","GREEN"
"57","85.9154929577","yes","85.9154929577","25","2046","2046","#ffffff","no","I","v;b;n;m","legacy","I have read and understood the information shown above","legacy","legacy","green","0","inc","uniform","0","0","1","NA","0","0","0","0","0","66","66","66","66","66","0","0","5","0","66","66","0","0","NA","0","66","0","66","NA","0","66","66","12/06/16 18:00:44","The main experiment item","yes","n","W:\Sussex\Consciousness and control\Exp 1 - stroop suggestion and PCE\Methods\Palfi_script","no","mono","no","18","no","black","no","Ok","NA","no","Male","768","legacy","C:/Users/User/Dropbox/Sussex/Consciousness and control/Exp 1 - stroop suggestion and PCE/Methods/Palfi_script/laptop_size/subject-6.csv","legacy","Interactive Ising","3.0.2","0","m","m","space","NA","1297","1297","14628","NA","2","legacy","1024","2","48000","-16","experiment","6","even","NA","791436","606675","660528","601392","882085","881513","882050","883385","884373","776807","NA","776807","583178","880140","881548","NA","2323","NA","NA","883621","577856","884823","NA","662532","881511","882085","Stroop IC","61","145336","71","yes","1366","BLUE"
"30","86.1111111111","yes","86.1111111111","25","2036","2036","#ffffff","no","I","v;b;n;m","legacy","I have read and understood the information shown above","legacy","legacy","blue","0","inc","uniform","1","1","1","NA","0","0","0","0","0","67","67","67","67","67","0","0","5","0","67","67","0","0","NA","0","67","0","67","NA","0","67","67","12/06/16 18:00:44","The main experiment item","yes","b","W:\Sussex\Consciousness and control\Exp 1 - stroop suggestion and PCE\Methods\Palfi_script","no","mono","no","18","no","black","no","Ok","NA","no","Male","768","legacy","C:/Users/User/Dropbox/Sussex/Consciousness and control/Exp 1 - stroop suggestion and PCE/Methods/Palfi_script/laptop_size/subject-6.csv","legacy","Interactive Ising","3.0.2","0","b","b","space","NA","1258","1258","14628","NA","2","legacy","1024","2","48000","-16","experiment","6","even","NA","791436","606675","660528","601392","885525","884953","885490","886786","887774","776807","NA","776807","583178","887022","884988","NA","2323","NA","NA","883621","577856","888224","NA","662532","884951","885525","Stroop IC","62","146594","72","yes","1366","RED"
"1","86.301369863","yes","86.301369863","25","2017","2017","#ffffff","no","I","v;b;n;m","legacy","I have read and understood the information shown above","legacy","legacy","red","0","inc","uniform","1","1","1","NA","0","0","0","0","0","68","68","68","68","68","0","0","5","0","68","68","0","0","NA","0","68","0","68","NA","0","68","68","12/06/16 18:00:44","The main experiment item","yes","v","W:\Sussex\Consciousness and control\Exp 1 - stroop suggestion and PCE\Methods\Palfi_script","no","mono","no","18","no","black","no","Ok","NA","no","Male","768","legacy","C:/Users/User/Dropbox/Sussex/Consciousness and control/Exp 1 - stroop suggestion and PCE/Methods/Palfi_script/laptop_size/subject-6.csv","legacy","Interactive Ising","3.0.2","0","v","v","space","NA","711","711","14628","NA","2","legacy","1024","2","48000","-16","experiment","6","even","NA","791436","606675","660528","601392","888941","888369","888906","889655","890645","776807","NA","776807","583178","889891","888404","NA","2323","NA","NA","883621","577856","891095","NA","662532","888366","888941","Stroop IC","63","147305","73","yes","1366","BLUE"
"37","86.4864864865","yes","86.4864864865","25","2002","2002","#ffffff","no","I","v;b;n;m","legacy","I have read and understood the information shown above","legacy","legacy","blue","0","inc","uniform","1","1","1","NA","0","0","0","0","0","69","69","69","69","69","0","0","5","0","69","69","0","0","NA","0","69","0","69","NA","0","69","69","12/06/16 18:00:44","The main experiment item","yes","b","W:\Sussex\Consciousness and control\Exp 1 - stroop suggestion and PCE\Methods\Palfi_script","no","mono","no","18","no","black","no","Ok","NA","no","Male","768","legacy","C:/Users/User/Dropbox/Sussex/Consciousness and control/Exp 1 - stroop suggestion and PCE/Methods/Palfi_script/laptop_size/subject-6.csv","legacy","Interactive Ising","3.0.2","0","b","b","space","NA","916","916","14628","NA","2","legacy","1024","2","48000","-16","experiment","6","even","NA","791436","606675","660528","601392","891808","891236","891773","892727","893716","776807","NA","776807","583178","892964","891271","NA","2323","NA","NA","883621","577856","894166","NA","662532","891233","891808","Stroop IC","64","148221","74","yes","1366","GREEN"
"58","86.6666666667","yes","86.6666666667","25","1989","1989","#ffffff","no","I","v;b;n;m","legacy","I have read and understood the information shown above","legacy","legacy","green","0","inc","uniform","1","1","1","NA","0","0","0","0","0","70","70","70","70","70","0","0","5","0","70","70","0","0","NA","0","70","0","70","NA","0","70","70","12/06/16 18:00:44","The main experiment item","yes","n","W:\Sussex\Consciousness and control\Exp 1 - stroop suggestion and PCE\Methods\Palfi_script","no","mono","no","18","no","black","no","Ok","NA","no","Male","768","legacy","C:/Users/User/Dropbox/Sussex/Consciousness and control/Exp 1 - stroop suggestion and PCE/Methods/Palfi_script/laptop_size/subject-6.csv","legacy","Interactive Ising","3.0.2","0","n","n","space","NA","1013","1013","14628","NA","2","legacy","1024","2","48000","-16","experiment","6","even","NA","791436","606675","660528","601392","894929","894357","894894","895945","896934","776807","NA","776807","583178","896181","894392","NA","2323","NA","NA","883621","577856","897385","NA","662532","894355","894929","Stroop IC","65","149234","75","yes","1366","BLUE"
"92","86.8421052632","yes","86.8421052632","25","1975","1975","#ffffff","no","I","v;b;n;m","legacy","I have read and understood the information shown above","legacy","legacy","#ffef36","0","inc","uniform","1","1","1","NA","0","0","0","0","0","71","71","71","71","71","0","0","5","0","71","71","0","0","NA","0","71","0","71","NA","0","71","71","12/06/16 18:00:44","The main experiment item","yes","m","W:\Sussex\Consciousness and control\Exp 1 - stroop suggestion and PCE\Methods\Palfi_script","no","mono","no","18","no","black","no","Ok","NA","no","Male","768","legacy","C:/Users/User/Dropbox/Sussex/Consciousness and control/Exp 1 - stroop suggestion and PCE/Methods/Palfi_script/laptop_size/subject-6.csv","legacy","Interactive Ising","3.0.2","0","m","m","space","NA","904","904","14628","NA","2","legacy","1024","2","48000","-16","experiment","6","even","NA","791436","606675","660528","601392","898086","897514","898051","898993","899981","776807","NA","776807","583178","899229","897549","NA","2323","NA","NA","883621","577856","900431","NA","662532","897512","898086","Stroop IC","66","150138","76","yes","1366","GREEN"
"70","85.7142857143","yes","85.7142857143","25","1965","1965","#ffffff","no","I","v;b;n;m","legacy","I have read and understood the information shown above","legacy","legacy","green","0","inc","uniform","0","0","1","NA","0","0","0","0","0","72","72","72","72","72","0","0","5","0","72","72","0","0","NA","0","72","0","72","NA","0","72","72","12/06/16 18:00:44","The main experiment item","yes","n","W:\Sussex\Consciousness and control\Exp 1 - stroop suggestion and PCE\Methods\Palfi_script","no","mono","no","18","no","black","no","Ok","NA","no","Male","768","legacy","C:/Users/User/Dropbox/Sussex/Consciousness and control/Exp 1 - stroop suggestion and PCE/Methods/Palfi_script/laptop_size/subject-6.csv","legacy","Interactive Ising","3.0.2","0","b","b","space","NA","1211","1211","14628","NA","2","legacy","1024","2","48000","-16","experiment","6","even","NA","791436","606675","660528","601392","901147","900575","901112","902361","903353","776807","NA","776807","583178","899229","900610","NA","2323","NA","NA","902599","577856","903804","NA","662532","900572","901147","Stroop IC","66","151349","77","yes","1366","YELLOW"
"120","85.8974358974","yes","85.8974358974","25","1950","1950","#ffffff","no","I","v;b;n;m","legacy","I have read and understood the information shown above","legacy","legacy","#ffef36","0","neutral","uniform","1","1","1","NA","0","0","0","0","0","73","73","73","73","73","0","0","5","0","73","73","0","0","NA","0","73","0","73","NA","0","73","73","12/06/16 18:00:44","The main experiment item","yes","m","W:\Sussex\Consciousness and control\Exp 1 - stroop suggestion and PCE\Methods\Palfi_script","no","mono","no","18","no","black","no","Ok","NA","no","Male","768","legacy","C:/Users/User/Dropbox/Sussex/Consciousness and control/Exp 1 - stroop suggestion and PCE/Methods/Palfi_script/laptop_size/subject-6.csv","legacy","Interactive Ising","3.0.2","0","m","m","space","NA","799","799","14628","NA","2","legacy","1024","2","48000","-16","experiment","6","even","NA","791436","606675","660528","601392","904554","903982","904519","905356","906346","776807","NA","776807","583178","905592","904017","NA","2323","NA","NA","902599","577856","906796","NA","662532","903979","904554","Stroop IC","67","152148","78","yes","1366","KNIFE"
"43","86.0759493671","yes","86.0759493671","25","1937","1937","#ffffff","no","I","v;b;n;m","legacy","I have read and understood the information shown above","legacy","legacy","blue","0","inc","uniform","1","1","1","NA","0","0","0","0","0","74","74","74","74","74","0","0","5","0","74","74","0","0","NA","0","74","0","74","NA","0","74","74","12/06/16 18:00:44","The main experiment item","yes","b","W:\Sussex\Consciousness and control\Exp 1 - stroop suggestion and PCE\Methods\Palfi_script","no","mono","no","18","no","black","no","Ok","NA","no","Male","768","legacy","C:/Users/User/Dropbox/Sussex/Consciousness and control/Exp 1 - stroop suggestion and PCE/Methods/Palfi_script/laptop_size/subject-6.csv","legacy","Interactive Ising","3.0.2","0","b","b","space","NA","952","952","14628","NA","2","legacy","1024","2","48000","-16","experiment","6","even","NA","791436","606675","660528","601392","907558","906986","907523","908514","909505","776807","NA","776807","583178","908753","907021","NA","2323","NA","NA","902599","577856","909956","NA","662532","906984","907558","Stroop IC","68","153100","79","yes","1366","YELLOW"
"32","86.25","yes","86.25","25","1924","1924","#ffffff","no","I","v;b;n;m","legacy","I have read and understood the information shown above","legacy","legacy","blue","0","inc","uniform","1","1","1","NA","0","0","0","0","0","75","75","75","75","75","0","0","5","0","75","75","0","0","NA","0","75","0","75","NA","0","75","75","12/06/16 18:00:44","The main experiment item","yes","b","W:\Sussex\Consciousness and control\Exp 1 - stroop suggestion and PCE\Methods\Palfi_script","no","mono","no","18","no","black","no","Ok","NA","no","Male","768","legacy","C:/Users/User/Dropbox/Sussex/Consciousness and control/Exp 1 - stroop suggestion and PCE/Methods/Palfi_script/laptop_size/subject-6.csv","legacy","Interactive Ising","3.0.2","0","b","b","space","NA","842","842","14628","NA","2","legacy","1024","2","48000","-16","experiment","6","even","NA","791436","606675","660528","601392","910657","910084","910622","911502","912490","776807","NA","776807","583178","911738","910120","NA","2323","NA","NA","902599","577856","912940","NA","662532","910082","910657","Stroop IC","69","153942","80","yes","1366","RED"
"2","86.4197530864","yes","86.4197530864","25","1911","1911","#ffffff","no","I","v;b;n;m","legacy","I have read and understood the information shown above","legacy","legacy","red","0","inc","uniform","1","1","1","NA","0","0","0","0","0","76","76","76","76","76","0","0","5","0","76","76","0","0","NA","0","76","0","76","NA","0","76","76","12/06/16 18:00:44","The main experiment item","yes","v","W:\Sussex\Consciousness and control\Exp 1 - stroop suggestion and PCE\Methods\Palfi_script","no","mono","no","18","no","black","no","Ok","NA","no","Male","768","legacy","C:/Users/User/Dropbox/Sussex/Consciousness and control/Exp 1 - stroop suggestion and PCE/Methods/Palfi_script/laptop_size/subject-6.csv","legacy","Interactive Ising","3.0.2","0","v","v","space","NA","850","850","14628","NA","2","legacy","1024","2","48000","-16","experiment","6","even","NA","791436","606675","660528","601392","913655","913081","913619","914508","915497","776807","NA","776807","583178","914744","913117","NA","2323","NA","NA","902599","577856","915947","NA","662532","913079","913654","Stroop IC","70","154792","81","yes","1366","BLUE"
"49","86.5853658537","yes","86.5853658537","25","1901","1901","#ffffff","no","I","v;b;n;m","legacy","I have read and understood the information shown above","legacy","legacy","green","0","inc","uniform","1","1","1","NA","0","0","0","0","0","77","77","77","77","77","0","0","5","0","77","77","0","0","NA","0","77","0","77","NA","0","77","77","12/06/16 18:00:44","The main experiment item","yes","n","W:\Sussex\Consciousness and control\Exp 1 - stroop suggestion and PCE\Methods\Palfi_script","no","mono","no","18","no","black","no","Ok","NA","no","Male","768","legacy","C:/Users/User/Dropbox/Sussex/Consciousness and control/Exp 1 - stroop suggestion and PCE/Methods/Palfi_script/laptop_size/subject-6.csv","legacy","Interactive Ising","3.0.2","0","n","n","space","NA","1110","1110","14628","NA","2","legacy","1024","2","48000","-16","experiment","6","even","NA","791436","606675","660528","601392","916708","916134","916673","917844","918836","776807","NA","776807","583178","918083","916169","NA","2323","NA","NA","902599","577856","919286","NA","662532","916132","916708","Stroop IC","71","155902","82","yes","1366","RED"
"104","86.7469879518","yes","86.7469879518","25","1886","1886","#ffffff","no","I","v;b;n;m","legacy","I have read and understood the information shown above","legacy","legacy","green","0","con","uniform","1","1","1","NA","0","0","0","0","0","78","78","78","78","78","0","0","5","0","78","78","0","0","NA","0","78","0","78","NA","0","78","78","12/06/16 18:00:44","The main experiment item","yes","n","W:\Sussex\Consciousness and control\Exp 1 - stroop suggestion and PCE\Methods\Palfi_script","no","mono","no","18","no","black","no","Ok","NA","no","Male","768","legacy","C:/Users/User/Dropbox/Sussex/Consciousness and control/Exp 1 - stroop suggestion and PCE/Methods/Palfi_script/laptop_size/subject-6.csv","legacy","Interactive Ising","3.0.2","0","n","n","space","NA","675","675","14628","NA","2","legacy","1024","2","48000","-16","experiment","6","even","NA","791436","606675","660528","601392","920067","919495","920032","920746","921734","776807","NA","776807","583178","920982","919530","NA","2323","NA","NA","902599","577856","922184","NA","662532","919493","920067","Stroop IC","72","156577","83","yes","1366","GREEN"
"4","86.9047619048","yes","86.9047619048","25","1872","1872","#ffffff","no","I","v;b;n;m","legacy","I have read and understood the information shown above","legacy","legacy","red","0","inc","uniform","1","1","1","NA","0","0","0","0","0","79","79","79","79","79","0","0","5","0","79","79","0","0","NA","0","79","0","79","NA","0","79","79","12/06/16 18:00:44","The main experiment item","yes","v","W:\Sussex\Consciousness and control\Exp 1 - stroop suggestion and PCE\Methods\Palfi_script","no","mono","no","18","no","black","no","Ok","NA","no","Male","768","legacy","C:/Users/User/Dropbox/Sussex/Consciousness and control/Exp 1 - stroop suggestion and PCE/Methods/Palfi_script/laptop_size/subject-6.csv","legacy","Interactive Ising","3.0.2","0","v","v","space","NA","728","728","14628","NA","2","legacy","1024","2","48000","-16","experiment","6","even","NA","791436","606675","660528","601392","922907","922334","922871","923638","924627","776807","NA","776807","583178","923875","922370","NA","2323","NA","NA","902599","577856","925077","NA","662532","922332","922907","Stroop IC","73","157305","84","yes","1366","BLUE"
"62","87.0588235294","yes","87.0588235294","25","1860","1860","#ffffff","no","I","v;b;n;m","legacy","I have read and understood the information shown above","legacy","legacy","green","0","inc","uniform","1","1","1","NA","0","0","0","0","0","80","80","80","80","80","0","0","5","0","80","80","0","0","NA","0","80","0","80","NA","0","80","80","12/06/16 18:00:44","The main experiment item","yes","n","W:\Sussex\Consciousness and control\Exp 1 - stroop suggestion and PCE\Methods\Palfi_script","no","mono","no","18","no","black","no","Ok","NA","no","Male","768","legacy","C:/Users/User/Dropbox/Sussex/Consciousness and control/Exp 1 - stroop suggestion and PCE/Methods/Palfi_script/laptop_size/subject-6.csv","legacy","Interactive Ising","3.0.2","0","n","n","space","NA","837","837","14628","NA","2","legacy","1024","2","48000","-16","experiment","6","even","NA","791436","606675","660528","601392","925782","925209","925746","926622","927612","776807","NA","776807","583178","926860","925244","NA","2323","NA","NA","902599","577856","928062","NA","662532","925207","925782","Stroop IC","74","158142","85","yes","1366","BLUE"
"71","87.2093023256","yes","87.2093023256","25","1844","1844","#ffffff","no","I","v;b;n;m","legacy","I have read and understood the information shown above","legacy","legacy","green","0","inc","uniform","1","1","1","NA","0","0","0","0","0","81","81","81","81","81","0","0","5","0","81","81","0","0","NA","0","81","0","81","NA","0","81","81","12/06/16 18:00:44","The main experiment item","yes","n","W:\Sussex\Consciousness and control\Exp 1 - stroop suggestion and PCE\Methods\Palfi_script","no","mono","no","18","no","black","no","Ok","NA","no","Male","768","legacy","C:/Users/User/Dropbox/Sussex/Consciousness and control/Exp 1 - stroop suggestion and PCE/Methods/Palfi_script/laptop_size/subject-6.csv","legacy","Interactive Ising","3.0.2","0","n","n","space","NA","487","487","14628","NA","2","legacy","1024","2","48000","-16","experiment","6","even","NA","791436","606675","660528","601392","928822","928250","928787","929312","930300","776807","NA","776807","583178","929548","928285","NA","2323","NA","NA","902599","577856","930750","NA","662532","928248","928822","Stroop IC","75","158629","86","yes","1366","YELLOW"
"93","87.3563218391","yes","87.3563218391","25","1830","1830","#ffffff","no","I","v;b;n;m","legacy","I have read and understood the information shown above","legacy","legacy","#ffef36","0","inc","uniform","1","1","1","NA","0","0","0","0","0","82","82","82","82","82","0","0","5","0","82","82","0","0","NA","0","82","0","82","NA","0","82","82","12/06/16 18:00:44","The main experiment item","yes","m","W:\Sussex\Consciousness and control\Exp 1 - stroop suggestion and PCE\Methods\Palfi_script","no","mono","no","18","no","black","no","Ok","NA","no","Male","768","legacy","C:/Users/User/Dropbox/Sussex/Consciousness and control/Exp 1 - stroop suggestion and PCE/Methods/Palfi_script/laptop_size/subject-6.csv","legacy","Interactive Ising","3.0.2","0","m","m","space","NA","624","624","14628","NA","2","legacy","1024","2","48000","-16","experiment","6","even","NA","791436","606675","660528","601392","931452","930879","931416","932078","933068","776807","NA","776807","583178","932315","930914","NA","2323","NA","NA","902599","577856","933518","NA","662532","930877","931452","Stroop IC","76","159253","87","yes","1366","GREEN"
"64","87.5","yes","87.5","25","1816","1816","#ffffff","no","I","v;b;n;m","legacy","I have read and understood the information shown above","legacy","legacy","green","0","inc","uniform","1","1","1","NA","0","0","0","0","0","83","83","83","83","83","0","0","5","0","83","83","0","0","NA","0","83","0","83","NA","0","83","83","12/06/16 18:00:44","The main experiment item","yes","n","W:\Sussex\Consciousness and control\Exp 1 - stroop suggestion and PCE\Methods\Palfi_script","no","mono","no","18","no","black","no","Ok","NA","no","Male","768","legacy","C:/Users/User/Dropbox/Sussex/Consciousness and control/Exp 1 - stroop suggestion and PCE/Methods/Palfi_script/laptop_size/subject-6.csv","legacy","Interactive Ising","3.0.2","0","n","n","space","NA","629","629","14628","NA","2","legacy","1024","2","48000","-16","experiment","6","even","NA","791436","606675","660528","601392","934214","933642","934179","934846","935834","776807","NA","776807","583178","935082","933677","NA","2323","NA","NA","902599","577856","936284","NA","662532","933640","934214","Stroop IC","77","159882","88","yes","1366","BLUE"
"53","87.6404494382","yes","87.6404494382","25","1803","1803","#ffffff","no","I","v;b;n;m","legacy","I have read and understood the information shown above","legacy","legacy","green","0","inc","uniform","1","1","1","NA","0","0","0","0","0","84","84","84","84","84","0","0","5","0","84","84","0","0","NA","0","84","0","84","NA","0","84","84","12/06/16 18:00:44","The main experiment item","yes","n","W:\Sussex\Consciousness and control\Exp 1 - stroop suggestion and PCE\Methods\Palfi_script","no","mono","no","18","no","black","no","Ok","NA","no","Male","768","legacy","C:/Users/User/Dropbox/Sussex/Consciousness and control/Exp 1 - stroop suggestion and PCE/Methods/Palfi_script/laptop_size/subject-6.csv","legacy","Interactive Ising","3.0.2","0","n","n","space","NA","611","611","14628","NA","2","legacy","1024","2","48000","-16","experiment","6","even","NA","791436","606675","660528","601392","937097","936523","937060","937711","938699","776807","NA","776807","583178","937947","936558","NA","2323","NA","NA","902599","577856","939149","NA","662532","936520","937097","Stroop IC","78","160493","89","yes","1366","RED"
"35","87.7777777778","yes","87.7777777778","25","1791","1791","#ffffff","no","I","v;b;n;m","legacy","I have read and understood the information shown above","legacy","legacy","blue","0","inc","uniform","1","1","1","NA","0","0","0","0","0","85","85","85","85","85","0","0","5","0","85","85","0","0","NA","0","85","0","85","NA","0","85","85","12/06/16 18:00:44","The main experiment item","yes","b","W:\Sussex\Consciousness and control\Exp 1 - stroop suggestion and PCE\Methods\Palfi_script","no","mono","no","18","no","black","no","Ok","NA","no","Male","768","legacy","C:/Users/User/Dropbox/Sussex/Consciousness and control/Exp 1 - stroop suggestion and PCE/Methods/Palfi_script/laptop_size/subject-6.csv","legacy","Interactive Ising","3.0.2","0","b","b","space","NA","705","705","14628","NA","2","legacy","1024","2","48000","-16","experiment","6","even","NA","791436","606675","660528","601392","939850","939278","939815","940558","941547","776807","NA","776807","583178","940794","939313","NA","2323","NA","NA","902599","577856","941997","NA","662532","939276","939850","Stroop IC","79","161198","90","yes","1366","GREEN"
"73","87.9120879121","yes","87.9120879121","25","1778","1778","#ffffff","no","I","v;b;n;m","legacy","I have read and understood the information shown above","legacy","legacy","#ffef36","0","inc","uniform","1","1","1","NA","0","0","0","0","0","86","86","86","86","86","0","0","5","0","86","86","0","0","NA","0","86","0","86","NA","0","86","86","12/06/16 18:00:44","The main experiment item","yes","m","W:\Sussex\Consciousness and control\Exp 1 - stroop suggestion and PCE\Methods\Palfi_script","no","mono","no","18","no","black","no","Ok","NA","no","Male","768","legacy","C:/Users/User/Dropbox/Sussex/Consciousness and control/Exp 1 - stroop suggestion and PCE/Methods/Palfi_script/laptop_size/subject-6.csv","legacy","Interactive Ising","3.0.2","0","m","m","space","NA","629","629","14628","NA","2","legacy","1024","2","48000","-16","experiment","6","even","NA","791436","606675","660528","601392","942744","942171","942708","943376","944366","776807","NA","776807","583178","943614","942206","NA","2323","NA","NA","902599","577856","944816","NA","662532","942169","942743","Stroop IC","80","161827","91","yes","1366","RED"
