"ID","acc","accept_status","accuracy","age","average_response_time","avg_rt","background","bidi","block","buttons","canvas_backend","checkbox_status","clock_backend","color_backend","colour","compensation","congruency","coordinates","correct","correct_answer","correct_button_block","correct_new_keyboard_response","count_C","count_I","count_Instruction","count_Practice_start","count_age","count_answer","count_blank","count_blank2","count_blank3","count_blank_4","count_break","count_break2","count_button_block","count_consent_form","count_correct_feedback","count_cross","count_end","count_experiment","count_feedback","count_gender","count_incorrect_feedback","count_information_sheet","count_logger","count_new_keyboard_response","count_practice","count_stroop","count_target","datetime","description","disable_garbage_collection","expected","experiment_path","font_bold","font_family","font_italic","font_size","font_underline","foreground","form_clicks","form_response","form_var","fullscreen","gender","height","keyboard_backend","logfile","mouse_backend","opensesame_codename","opensesame_version","repeat_cycle","response","response_answer","response_button_block","response_new_keyboard_response","response_time","response_time_answer","response_time_button_block","response_time_new_keyboard_response","round_decimals","sampler_backend","sound_buf_size","sound_channels","sound_freq","sound_sample_size","start","subject_nr","subject_parity","time_C","time_I","time_Instruction","time_Practice_start","time_age","time_answer","time_blank","time_blank2","time_blank3","time_blank_4","time_break","time_break2","time_button_block","time_consent_form","time_correct_feedback","time_cross","time_end","time_experiment","time_feedback","time_gender","time_incorrect_feedback","time_information_sheet","time_logger","time_new_keyboard_response","time_practice","time_stroop","time_target","title","total_correct","total_response_time","total_responses","uniform_coordinates","width","word"
"13","100","yes","100","25","13635","13635","#ffffff","no","practice","v;b;n;m","legacy","I have read and understood the information shown above","legacy","legacy","red","0","con","uniform","1","1","1","NA","0","0","0","0","0","0","0","0","0","0","0","0","5","0","0","0","0","0","NA","0","0","0","0","NA","0","0","0","12/08/16 11:07:08","The main experiment item","yes","v","W:\Sussex\Consciousness and control\Exp 1 - stroop suggestion and PCE\Methods\Palfi_script","no","mono","no","18","no","black","no","Ok","NA","no","Female","768","legacy","C:/Users/User/Dropbox/Sussex/Consciousness and control/Exp 1 - stroop suggestion and PCE/Methods/Palfi_script/laptop_size/subject-12_IC.csv","legacy","Interactive Ising","3.0.2","0","v","v","space","NA","627","627","2467","NA","2","legacy","1024","2","48000","-16","experiment","12","even","NA","NA","111397","155990","96780","159133","158561","159098","159763","160754","NA","NA","155991","74129","160001","158596","NA","2192","NA","NA","NA","65403","161204","NA","158459","158558","159133","Stroop IC","4","54543","4","yes","1366","RED"
"4","80","yes","80","25","11059","11059","#ffffff","no","practice","v;b;n;m","legacy","I have read and understood the information shown above","legacy","legacy","blue","0","inc","uniform","0","0","1","NA","0","0","0","0","0","1","1","1","1","1","0","0","5","0","1","1","0","0","NA","0","1","0","1","NA","0","1","1","12/08/16 11:07:08","The main experiment item","yes","b","W:\Sussex\Consciousness and control\Exp 1 - stroop suggestion and PCE\Methods\Palfi_script","no","mono","no","18","no","black","no","Ok","NA","no","Female","768","legacy","C:/Users/User/Dropbox/Sussex/Consciousness and control/Exp 1 - stroop suggestion and PCE/Methods/Palfi_script/laptop_size/subject-12_IC.csv","legacy","Interactive Ising","3.0.2","0","v","v","space","NA","753","753","2467","NA","2","legacy","1024","2","48000","-16","experiment","12","even","NA","NA","111397","155990","96780","161966","161394","161931","162722","163711","NA","NA","155991","74129","160001","161429","NA","2192","NA","NA","162958","65403","164161","NA","158459","161392","161966","Stroop IC","4","55296","5","yes","1366","RED"
"20","83.3333333333","yes","83.3333333333","25","9381","9381","#ffffff","no","practice","v;b;n;m","legacy","I have read and understood the information shown above","legacy","legacy","green","0","con","uniform","1","1","1","NA","0","0","0","0","0","2","2","2","2","2","0","0","5","0","2","2","0","0","NA","0","2","0","2","NA","0","2","2","12/08/16 11:07:08","The main experiment item","yes","n","W:\Sussex\Consciousness and control\Exp 1 - stroop suggestion and PCE\Methods\Palfi_script","no","mono","no","18","no","black","no","Ok","NA","no","Female","768","legacy","C:/Users/User/Dropbox/Sussex/Consciousness and control/Exp 1 - stroop suggestion and PCE/Methods/Palfi_script/laptop_size/subject-12_IC.csv","legacy","Interactive Ising","3.0.2","0","n","n","space","NA","992","992","2467","NA","2","legacy","1024","2","48000","-16","experiment","12","even","NA","NA","111397","155990","96780","164871","164299","164836","165866","166855","NA","NA","155991","74129","166103","164334","NA","2192","NA","NA","162958","65403","167305","NA","158459","164296","164871","Stroop IC","5","56288","6","yes","1366","GREEN"
"1","71.4285714286","yes","71.4285714286","25","8167","8167","#ffffff","no","practice","v;b;n;m","legacy","I have read and understood the information shown above","legacy","legacy","red","0","inc","uniform","0","0","1","NA","0","0","0","0","0","3","3","3","3","3","0","0","5","0","3","3","0","0","NA","0","3","0","3","NA","0","3","3","12/08/16 11:07:08","The main experiment item","yes","v","W:\Sussex\Consciousness and control\Exp 1 - stroop suggestion and PCE\Methods\Palfi_script","no","mono","no","18","no","black","no","Ok","NA","no","Female","768","legacy","C:/Users/User/Dropbox/Sussex/Consciousness and control/Exp 1 - stroop suggestion and PCE/Methods/Palfi_script/laptop_size/subject-12_IC.csv","legacy","Interactive Ising","3.0.2","0","b","b","space","NA","886","886","2467","NA","2","legacy","1024","2","48000","-16","experiment","12","even","NA","NA","111397","155990","96780","168026","167453","167990","168915","169904","NA","NA","155991","74129","166103","167488","NA","2192","NA","NA","169152","65403","170354","NA","158459","167450","168026","Stroop IC","5","57174","7","yes","1366","BLUE"
"17","75","yes","75","25","7264","7264","#ffffff","no","practice","v;b;n;m","legacy","I have read and understood the information shown above","legacy","legacy","blue","0","con","uniform","1","1","1","NA","0","0","0","0","0","4","4","4","4","4","0","0","5","0","4","4","0","0","NA","0","4","0","4","NA","0","4","4","12/08/16 11:07:08","The main experiment item","yes","b","W:\Sussex\Consciousness and control\Exp 1 - stroop suggestion and PCE\Methods\Palfi_script","no","mono","no","18","no","black","no","Ok","NA","no","Female","768","legacy","C:/Users/User/Dropbox/Sussex/Consciousness and control/Exp 1 - stroop suggestion and PCE/Methods/Palfi_script/laptop_size/subject-12_IC.csv","legacy","Interactive Ising","3.0.2","0","b","b","space","NA","941","941","2467","NA","2","legacy","1024","2","48000","-16","experiment","12","even","NA","NA","111397","155990","96780","171069","170496","171034","172013","173001","NA","NA","155991","74129","172249","170532","NA","2192","NA","NA","169152","65403","173451","NA","158459","170494","171069","Stroop IC","6","58115","8","yes","1366","BLUE"
"19","66.6666666667","yes","66.6666666667","25","6570","6570","#ffffff","no","practice","v;b;n;m","legacy","I have read and understood the information shown above","legacy","legacy","green","0","con","uniform","0","0","1","NA","0","0","0","0","0","5","5","5","5","5","0","0","5","0","5","5","0","0","NA","0","5","0","5","NA","0","5","5","12/08/16 11:07:08","The main experiment item","yes","n","W:\Sussex\Consciousness and control\Exp 1 - stroop suggestion and PCE\Methods\Palfi_script","no","mono","no","18","no","black","no","Ok","NA","no","Female","768","legacy","C:/Users/User/Dropbox/Sussex/Consciousness and control/Exp 1 - stroop suggestion and PCE/Methods/Palfi_script/laptop_size/subject-12_IC.csv","legacy","Interactive Ising","3.0.2","0","m","m","space","NA","1019","1019","2467","NA","2","legacy","1024","2","48000","-16","experiment","12","even","NA","NA","111397","155990","96780","174162","173589","174127","175184","176172","NA","NA","155991","74129","172249","173625","NA","2192","NA","NA","175420","65403","176622","NA","158459","173587","174162","Stroop IC","6","59134","9","yes","1366","GREEN"
"8","70","yes","70","25","6013","6013","#ffffff","no","practice","v;b;n;m","legacy","I have read and understood the information shown above","legacy","legacy","green","0","inc","uniform","1","1","1","NA","0","0","0","0","0","6","6","6","6","6","0","0","5","0","6","6","0","0","NA","0","6","0","6","NA","0","6","6","12/08/16 11:07:08","The main experiment item","yes","n","W:\Sussex\Consciousness and control\Exp 1 - stroop suggestion and PCE\Methods\Palfi_script","no","mono","no","18","no","black","no","Ok","NA","no","Female","768","legacy","C:/Users/User/Dropbox/Sussex/Consciousness and control/Exp 1 - stroop suggestion and PCE/Methods/Palfi_script/laptop_size/subject-12_IC.csv","legacy","Interactive Ising","3.0.2","0","n","n","space","NA","1001","1001","2467","NA","2","legacy","1024","2","48000","-16","experiment","12","even","NA","NA","111397","155990","96780","177336","176764","177301","178339","179329","NA","NA","155991","74129","178576","176799","NA","2192","NA","NA","175420","65403","179779","NA","158459","176762","177336","Stroop IC","7","60135","10","yes","1366","BLUE"
"9","72.7272727273","yes","72.7272727273","25","5553","5553","#ffffff","no","practice","v;b;n;m","legacy","I have read and understood the information shown above","legacy","legacy","green","0","inc","uniform","1","1","1","NA","0","0","0","0","0","7","7","7","7","7","0","0","5","0","7","7","0","0","NA","0","7","0","7","NA","0","7","7","12/08/16 11:07:08","The main experiment item","yes","n","W:\Sussex\Consciousness and control\Exp 1 - stroop suggestion and PCE\Methods\Palfi_script","no","mono","no","18","no","black","no","Ok","NA","no","Female","768","legacy","C:/Users/User/Dropbox/Sussex/Consciousness and control/Exp 1 - stroop suggestion and PCE/Methods/Palfi_script/laptop_size/subject-12_IC.csv","legacy","Interactive Ising","3.0.2","0","n","n","space","NA","955","955","2467","NA","2","legacy","1024","2","48000","-16","experiment","12","even","NA","NA","111397","155990","96780","180474","179902","180439","181432","182420","NA","NA","155991","74129","181668","179937","NA","2192","NA","NA","175420","65403","182870","NA","158459","179900","180474","Stroop IC","8","61090","11","yes","1366","YELLOW"
"26","75","yes","75","25","5164","5164","#ffffff","no","practice","v;b;n;m","legacy","I have read and understood the information shown above","legacy","legacy","red","0","neutral","uniform","1","1","1","NA","0","0","0","0","0","8","8","8","8","8","0","0","5","0","8","8","0","0","NA","0","8","0","8","NA","0","8","8","12/08/16 11:07:08","The main experiment item","yes","v","W:\Sussex\Consciousness and control\Exp 1 - stroop suggestion and PCE\Methods\Palfi_script","no","mono","no","18","no","black","no","Ok","NA","no","Female","768","legacy","C:/Users/User/Dropbox/Sussex/Consciousness and control/Exp 1 - stroop suggestion and PCE/Methods/Palfi_script/laptop_size/subject-12_IC.csv","legacy","Interactive Ising","3.0.2","0","v","v","space","NA","886","886","2467","NA","2","legacy","1024","2","48000","-16","experiment","12","even","NA","NA","111397","155990","96780","183592","183020","183557","184481","185469","NA","NA","155991","74129","184717","183055","NA","2192","NA","NA","175420","65403","185919","NA","158459","183018","183592","Stroop IC","9","61976","12","yes","1366","KNIFE"
"14","76.9230769231","yes","76.9230769231","25","4817","4817","#ffffff","no","practice","v;b;n;m","legacy","I have read and understood the information shown above","legacy","legacy","red","0","con","uniform","1","1","1","NA","0","0","0","0","0","9","9","9","9","9","0","0","5","0","9","9","0","0","NA","0","9","0","9","NA","0","9","9","12/08/16 11:07:08","The main experiment item","yes","v","W:\Sussex\Consciousness and control\Exp 1 - stroop suggestion and PCE\Methods\Palfi_script","no","mono","no","18","no","black","no","Ok","NA","no","Female","768","legacy","C:/Users/User/Dropbox/Sussex/Consciousness and control/Exp 1 - stroop suggestion and PCE/Methods/Palfi_script/laptop_size/subject-12_IC.csv","legacy","Interactive Ising","3.0.2","0","v","v","space","NA","657","657","2467","NA","2","legacy","1024","2","48000","-16","experiment","12","even","NA","NA","111397","155990","96780","186647","186074","186612","187307","188295","NA","NA","155991","74129","187543","186110","NA","2192","NA","NA","175420","65403","188745","NA","158459","186072","186647","Stroop IC","10","62633","13","yes","1366","RED"
"32","78.5714285714","yes","78.5714285714","25","4544","4544","#ffffff","no","practice","v;b;n;m","legacy","I have read and understood the information shown above","legacy","legacy","green","0","neutral","uniform","1","1","1","NA","0","0","0","0","0","10","10","10","10","10","0","0","5","0","10","10","0","0","NA","0","10","0","10","NA","0","10","10","12/08/16 11:07:08","The main experiment item","yes","n","W:\Sussex\Consciousness and control\Exp 1 - stroop suggestion and PCE\Methods\Palfi_script","no","mono","no","18","no","black","no","Ok","NA","no","Female","768","legacy","C:/Users/User/Dropbox/Sussex/Consciousness and control/Exp 1 - stroop suggestion and PCE/Methods/Palfi_script/laptop_size/subject-12_IC.csv","legacy","Interactive Ising","3.0.2","0","n","n","space","NA","984","984","2467","NA","2","legacy","1024","2","48000","-16","experiment","12","even","NA","NA","111397","155990","96780","189453","188880","189417","190440","191428","NA","NA","155991","74129","190676","188915","NA","2192","NA","NA","175420","65403","191878","NA","158459","188877","189453","Stroop IC","11","63617","14","yes","1366","SHIP"
"18","80","yes","80","25","4289","4289","#ffffff","no","practice","v;b;n;m","legacy","I have read and understood the information shown above","legacy","legacy","blue","0","con","uniform","1","1","1","NA","0","0","0","0","0","11","11","11","11","11","0","0","5","0","11","11","0","0","NA","0","11","0","11","NA","0","11","11","12/08/16 11:07:08","The main experiment item","yes","b","W:\Sussex\Consciousness and control\Exp 1 - stroop suggestion and PCE\Methods\Palfi_script","no","mono","no","18","no","black","no","Ok","NA","no","Female","768","legacy","C:/Users/User/Dropbox/Sussex/Consciousness and control/Exp 1 - stroop suggestion and PCE/Methods/Palfi_script/laptop_size/subject-12_IC.csv","legacy","Interactive Ising","3.0.2","0","b","b","space","NA","732","732","2467","NA","2","legacy","1024","2","48000","-16","experiment","12","even","NA","NA","111397","155990","96780","192611","192039","192576","193346","194334","NA","NA","155991","74129","193582","192074","NA","2192","NA","NA","175420","65403","194784","NA","158459","192036","192611","Stroop IC","12","64349","15","yes","1366","BLUE"
"36","81.25","yes","81.25","25","4071","4071","#ffffff","no","practice","v;b;n;m","legacy","I have read and understood the information shown above","legacy","legacy","#ffef36","0","neutral","uniform","1","1","1","NA","0","0","0","0","0","12","12","12","12","12","0","0","5","0","12","12","0","0","NA","0","12","0","12","NA","0","12","12","12/08/16 11:07:08","The main experiment item","yes","m","W:\Sussex\Consciousness and control\Exp 1 - stroop suggestion and PCE\Methods\Palfi_script","no","mono","no","18","no","black","no","Ok","NA","no","Female","768","legacy","C:/Users/User/Dropbox/Sussex/Consciousness and control/Exp 1 - stroop suggestion and PCE/Methods/Palfi_script/laptop_size/subject-12_IC.csv","legacy","Interactive Ising","3.0.2","0","m","m","space","NA","788","788","2467","NA","2","legacy","1024","2","48000","-16","experiment","12","even","NA","NA","111397","155990","96780","195524","194952","195489","196314","197303","NA","NA","155991","74129","196551","194987","NA","2192","NA","NA","175420","65403","197753","NA","158459","194949","195524","Stroop IC","13","65137","16","yes","1366","KNIFE"
"29","76.4705882353","yes","76.4705882353","25","3871","3871","#ffffff","no","practice","v;b;n;m","legacy","I have read and understood the information shown above","legacy","legacy","blue","0","neutral","uniform","0","0","1","NA","0","0","0","0","0","13","13","13","13","13","0","0","5","0","13","13","0","0","NA","0","13","0","13","NA","0","13","13","12/08/16 11:07:08","The main experiment item","yes","b","W:\Sussex\Consciousness and control\Exp 1 - stroop suggestion and PCE\Methods\Palfi_script","no","mono","no","18","no","black","no","Ok","NA","no","Female","768","legacy","C:/Users/User/Dropbox/Sussex/Consciousness and control/Exp 1 - stroop suggestion and PCE/Methods/Palfi_script/laptop_size/subject-12_IC.csv","legacy","Interactive Ising","3.0.2","0","n","n","space","NA","680","680","2467","NA","2","legacy","1024","2","48000","-16","experiment","12","even","NA","NA","111397","155990","96780","198485","197912","198449","199168","200156","NA","NA","155991","74129","196551","197947","NA","2192","NA","NA","199404","65403","200606","NA","158459","197910","198484","Stroop IC","13","65817","17","yes","1366","KNIFE"
"35","77.7777777778","yes","77.7777777778","25","3705","3705","#ffffff","no","practice","v;b;n;m","legacy","I have read and understood the information shown above","legacy","legacy","#ffef36","0","neutral","uniform","1","1","1","NA","0","0","0","0","0","14","14","14","14","14","0","0","5","0","14","14","0","0","NA","0","14","0","14","NA","0","14","14","12/08/16 11:07:08","The main experiment item","yes","m","W:\Sussex\Consciousness and control\Exp 1 - stroop suggestion and PCE\Methods\Palfi_script","no","mono","no","18","no","black","no","Ok","NA","no","Female","768","legacy","C:/Users/User/Dropbox/Sussex/Consciousness and control/Exp 1 - stroop suggestion and PCE/Methods/Palfi_script/laptop_size/subject-12_IC.csv","legacy","Interactive Ising","3.0.2","0","m","m","space","NA","876","876","2467","NA","2","legacy","1024","2","48000","-16","experiment","12","even","NA","NA","111397","155990","96780","201317","200744","201282","202198","203186","NA","NA","155991","74129","202434","200780","NA","2192","NA","NA","199404","65403","203636","NA","158459","200742","201317","Stroop IC","14","66693","18","yes","1366","SHIP"
"6","73.6842105263","yes","73.6842105263","25","3556","3556","#ffffff","no","practice","v;b;n;m","legacy","I have read and understood the information shown above","legacy","legacy","blue","0","inc","uniform","0","0","1","NA","0","0","0","0","0","15","15","15","15","15","0","0","5","0","15","15","0","0","NA","0","15","0","15","NA","0","15","15","12/08/16 11:07:08","The main experiment item","yes","b","W:\Sussex\Consciousness and control\Exp 1 - stroop suggestion and PCE\Methods\Palfi_script","no","mono","no","18","no","black","no","Ok","NA","no","Female","768","legacy","C:/Users/User/Dropbox/Sussex/Consciousness and control/Exp 1 - stroop suggestion and PCE/Methods/Palfi_script/laptop_size/subject-12_IC.csv","legacy","Interactive Ising","3.0.2","0","v","v","space","NA","887","887","2467","NA","2","legacy","1024","2","48000","-16","experiment","12","even","NA","NA","111397","155990","96780","204422","203850","204387","205312","206300","NA","NA","155991","74129","202434","203885","NA","2192","NA","NA","205548","65403","206750","NA","158459","203848","204422","Stroop IC","14","67580","19","yes","1366","YELLOW"
"31","75","yes","75","25","3417","3417","#ffffff","no","practice","v;b;n;m","legacy","I have read and understood the information shown above","legacy","legacy","green","0","neutral","uniform","1","1","1","NA","0","0","0","0","0","16","16","16","16","16","0","0","5","0","16","16","0","0","NA","0","16","0","16","NA","0","16","16","12/08/16 11:07:08","The main experiment item","yes","n","W:\Sussex\Consciousness and control\Exp 1 - stroop suggestion and PCE\Methods\Palfi_script","no","mono","no","18","no","black","no","Ok","NA","no","Female","768","legacy","C:/Users/User/Dropbox/Sussex/Consciousness and control/Exp 1 - stroop suggestion and PCE/Methods/Palfi_script/laptop_size/subject-12_IC.csv","legacy","Interactive Ising","3.0.2","0","n","n","space","NA","769","769","2467","NA","2","legacy","1024","2","48000","-16","experiment","12","even","NA","NA","111397","155990","96780","207457","206883","207422","208229","209217","NA","NA","155991","74129","208465","206918","NA","2192","NA","NA","205548","65403","209668","NA","158459","206881","207457","Stroop IC","15","68349","20","yes","1366","LOT"
"30","76.1904761905","yes","76.1904761905","25","3308","3308","#ffffff","no","practice","v;b;n;m","legacy","I have read and understood the information shown above","legacy","legacy","blue","0","neutral","uniform","1","1","1","NA","0","0","0","0","0","17","17","17","17","17","0","0","5","0","17","17","0","0","NA","0","17","0","17","NA","0","17","17","12/08/16 11:07:08","The main experiment item","yes","b","W:\Sussex\Consciousness and control\Exp 1 - stroop suggestion and PCE\Methods\Palfi_script","no","mono","no","18","no","black","no","Ok","NA","no","Female","768","legacy","C:/Users/User/Dropbox/Sussex/Consciousness and control/Exp 1 - stroop suggestion and PCE/Methods/Palfi_script/laptop_size/subject-12_IC.csv","legacy","Interactive Ising","3.0.2","0","b","b","space","NA","1119","1119","2467","NA","2","legacy","1024","2","48000","-16","experiment","12","even","NA","NA","111397","155990","96780","210369","209797","210334","211491","212479","NA","NA","155991","74129","211727","209832","NA","2192","NA","NA","205548","65403","212929","NA","158459","209795","210369","Stroop IC","16","69468","21","yes","1366","FLOWER"
"3","77.2727272727","yes","77.2727272727","25","3185","3185","#ffffff","no","practice","v;b;n;m","legacy","I have read and understood the information shown above","legacy","legacy","red","0","inc","uniform","1","1","1","NA","0","0","0","0","0","18","18","18","18","18","0","0","5","0","18","18","0","0","NA","0","18","0","18","NA","0","18","18","12/08/16 11:07:08","The main experiment item","yes","v","W:\Sussex\Consciousness and control\Exp 1 - stroop suggestion and PCE\Methods\Palfi_script","no","mono","no","18","no","black","no","Ok","NA","no","Female","768","legacy","C:/Users/User/Dropbox/Sussex/Consciousness and control/Exp 1 - stroop suggestion and PCE/Methods/Palfi_script/laptop_size/subject-12_IC.csv","legacy","Interactive Ising","3.0.2","0","v","v","space","NA","606","606","2467","NA","2","legacy","1024","2","48000","-16","experiment","12","even","NA","NA","111397","155990","96780","213639","213067","213604","214249","215238","NA","NA","155991","74129","214485","213102","NA","2192","NA","NA","205548","65403","215688","NA","158459","213065","213639","Stroop IC","17","70074","22","yes","1366","YELLOW"
"5","78.2608695652","yes","78.2608695652","25","3087","3087","#ffffff","no","practice","v;b;n;m","legacy","I have read and understood the information shown above","legacy","legacy","blue","0","inc","uniform","1","1","1","NA","0","0","0","0","0","19","19","19","19","19","0","0","5","0","19","19","0","0","NA","0","19","0","19","NA","0","19","19","12/08/16 11:07:08","The main experiment item","yes","b","W:\Sussex\Consciousness and control\Exp 1 - stroop suggestion and PCE\Methods\Palfi_script","no","mono","no","18","no","black","no","Ok","NA","no","Female","768","legacy","C:/Users/User/Dropbox/Sussex/Consciousness and control/Exp 1 - stroop suggestion and PCE/Methods/Palfi_script/laptop_size/subject-12_IC.csv","legacy","Interactive Ising","3.0.2","0","b","b","space","NA","949","949","2467","NA","2","legacy","1024","2","48000","-16","experiment","12","even","NA","NA","111397","155990","96780","216388","215816","216353","217340","218329","NA","NA","155991","74129","217577","215851","NA","2192","NA","NA","205548","65403","218779","NA","158459","215814","216388","Stroop IC","18","71023","23","yes","1366","GREEN"
"16","79.1666666667","yes","79.1666666667","25","2982","2982","#ffffff","no","practice","v;b;n;m","legacy","I have read and understood the information shown above","legacy","legacy","blue","0","con","uniform","1","1","1","NA","0","0","0","0","0","20","20","20","20","20","0","0","5","0","20","20","0","0","NA","0","20","0","20","NA","0","20","20","12/08/16 11:07:08","The main experiment item","yes","b","W:\Sussex\Consciousness and control\Exp 1 - stroop suggestion and PCE\Methods\Palfi_script","no","mono","no","18","no","black","no","Ok","NA","no","Female","768","legacy","C:/Users/User/Dropbox/Sussex/Consciousness and control/Exp 1 - stroop suggestion and PCE/Methods/Palfi_script/laptop_size/subject-12_IC.csv","legacy","Interactive Ising","3.0.2","0","b","b","space","NA","552","552","2467","NA","2","legacy","1024","2","48000","-16","experiment","12","even","NA","NA","111397","155990","96780","219590","219017","219554","220145","221134","NA","NA","155991","74129","220382","219052","NA","2192","NA","NA","205548","65403","221584","NA","158459","219015","219590","Stroop IC","19","71575","24","yes","1366","BLUE"
"23","76","yes","76","25","2886","2886","#ffffff","no","practice","v;b;n;m","legacy","I have read and understood the information shown above","legacy","legacy","#ffef36","0","con","uniform","0","0","1","NA","0","0","0","0","0","21","21","21","21","21","0","0","5","0","21","21","0","0","NA","0","21","0","21","NA","0","21","21","12/08/16 11:07:08","The main experiment item","yes","m","W:\Sussex\Consciousness and control\Exp 1 - stroop suggestion and PCE\Methods\Palfi_script","no","mono","no","18","no","black","no","Ok","NA","no","Female","768","legacy","C:/Users/User/Dropbox/Sussex/Consciousness and control/Exp 1 - stroop suggestion and PCE/Methods/Palfi_script/laptop_size/subject-12_IC.csv","legacy","Interactive Ising","3.0.2","0","n","n","space","NA","593","593","2467","NA","2","legacy","1024","2","48000","-16","experiment","12","even","NA","NA","111397","155990","96780","222337","221765","222302","222933","223923","NA","NA","155991","74129","220382","221800","NA","2192","NA","NA","223171","65403","224373","NA","158459","221763","222337","Stroop IC","19","72168","25","yes","1366","YELLOW"
"33","76.9230769231","yes","76.9230769231","25","2809","2809","#ffffff","no","practice","v;b;n;m","legacy","I have read and understood the information shown above","legacy","legacy","green","0","neutral","uniform","1","1","1","NA","0","0","0","0","0","22","22","22","22","22","0","0","5","0","22","22","0","0","NA","0","22","0","22","NA","0","22","22","12/08/16 11:07:08","The main experiment item","yes","n","W:\Sussex\Consciousness and control\Exp 1 - stroop suggestion and PCE\Methods\Palfi_script","no","mono","no","18","no","black","no","Ok","NA","no","Female","768","legacy","C:/Users/User/Dropbox/Sussex/Consciousness and control/Exp 1 - stroop suggestion and PCE/Methods/Palfi_script/laptop_size/subject-12_IC.csv","legacy","Interactive Ising","3.0.2","0","n","n","space","NA","891","891","2467","NA","2","legacy","1024","2","48000","-16","experiment","12","even","NA","NA","111397","155990","96780","225136","224564","225101","226030","227020","NA","NA","155991","74129","226266","224599","NA","2192","NA","NA","223171","65403","227470","NA","158459","224562","225136","Stroop IC","20","73059","26","yes","1366","FLOWER"
"34","77.7777777778","yes","77.7777777778","25","2727","2727","#ffffff","no","practice","v;b;n;m","legacy","I have read and understood the information shown above","legacy","legacy","#ffef36","0","neutral","uniform","1","1","1","NA","0","0","0","0","0","23","23","23","23","23","0","0","5","0","23","23","0","0","NA","0","23","0","23","NA","0","23","23","12/08/16 11:07:08","The main experiment item","yes","m","W:\Sussex\Consciousness and control\Exp 1 - stroop suggestion and PCE\Methods\Palfi_script","no","mono","no","18","no","black","no","Ok","NA","no","Female","768","legacy","C:/Users/User/Dropbox/Sussex/Consciousness and control/Exp 1 - stroop suggestion and PCE/Methods/Palfi_script/laptop_size/subject-12_IC.csv","legacy","Interactive Ising","3.0.2","0","m","m","space","NA","589","589","2467","NA","2","legacy","1024","2","48000","-16","experiment","12","even","NA","NA","111397","155990","96780","228166","227594","228131","228758","229747","NA","NA","155991","74129","228995","227629","NA","2192","NA","NA","223171","65403","230197","NA","158459","227592","228166","Stroop IC","21","73648","27","yes","1366","LOT"
"27","78.5714285714","yes","78.5714285714","25","2664","2664","#ffffff","no","practice","v;b;n;m","legacy","I have read and understood the information shown above","legacy","legacy","red","0","neutral","uniform","1","1","1","NA","0","0","0","0","0","24","24","24","24","24","0","0","5","0","24","24","0","0","NA","0","24","0","24","NA","0","24","24","12/08/16 11:07:08","The main experiment item","yes","v","W:\Sussex\Consciousness and control\Exp 1 - stroop suggestion and PCE\Methods\Palfi_script","no","mono","no","18","no","black","no","Ok","NA","no","Female","768","legacy","C:/Users/User/Dropbox/Sussex/Consciousness and control/Exp 1 - stroop suggestion and PCE/Methods/Palfi_script/laptop_size/subject-12_IC.csv","legacy","Interactive Ising","3.0.2","0","v","v","space","NA","956","956","2467","NA","2","legacy","1024","2","48000","-16","experiment","12","even","NA","NA","111397","155990","96780","230955","230383","230920","231916","232906","NA","NA","155991","74129","232154","230418","NA","2192","NA","NA","223171","65403","233356","NA","158459","230381","230955","Stroop IC","22","74604","28","yes","1366","FLOWER"
"28","79.3103448276","yes","79.3103448276","25","2592","2592","#ffffff","no","practice","v;b;n;m","legacy","I have read and understood the information shown above","legacy","legacy","blue","0","neutral","uniform","1","1","1","NA","0","0","0","0","0","25","25","25","25","25","0","0","5","0","25","25","0","0","NA","0","25","0","25","NA","0","25","25","12/08/16 11:07:08","The main experiment item","yes","b","W:\Sussex\Consciousness and control\Exp 1 - stroop suggestion and PCE\Methods\Palfi_script","no","mono","no","18","no","black","no","Ok","NA","no","Female","768","legacy","C:/Users/User/Dropbox/Sussex/Consciousness and control/Exp 1 - stroop suggestion and PCE/Methods/Palfi_script/laptop_size/subject-12_IC.csv","legacy","Interactive Ising","3.0.2","0","b","b","space","NA","573","573","2467","NA","2","legacy","1024","2","48000","-16","experiment","12","even","NA","NA","111397","155990","96780","234306","233733","234271","234882","235871","NA","NA","155991","74129","235119","233769","NA","2192","NA","NA","223171","65403","236321","NA","158459","233731","234306","Stroop IC","23","75177","29","yes","1366","LOT"
"25","80","yes","80","25","2536","2536","#ffffff","no","practice","v;b;n;m","legacy","I have read and understood the information shown above","legacy","legacy","red","0","neutral","uniform","1","1","1","NA","0","0","0","0","0","26","26","26","26","26","0","0","5","0","26","26","0","0","NA","0","26","0","26","NA","0","26","26","12/08/16 11:07:08","The main experiment item","yes","v","W:\Sussex\Consciousness and control\Exp 1 - stroop suggestion and PCE\Methods\Palfi_script","no","mono","no","18","no","black","no","Ok","NA","no","Female","768","legacy","C:/Users/User/Dropbox/Sussex/Consciousness and control/Exp 1 - stroop suggestion and PCE/Methods/Palfi_script/laptop_size/subject-12_IC.csv","legacy","Interactive Ising","3.0.2","0","v","v","space","NA","913","913","2467","NA","2","legacy","1024","2","48000","-16","experiment","12","even","NA","NA","111397","155990","96780","237032","236460","236997","237948","238937","NA","NA","155991","74129","238185","236495","NA","2192","NA","NA","223171","65403","239388","NA","158459","236458","237032","Stroop IC","24","76090","30","yes","1366","SHIP"
"2","80.6451612903","yes","80.6451612903","25","2478","2478","#ffffff","no","practice","v;b;n;m","legacy","I have read and understood the information shown above","legacy","legacy","red","0","inc","uniform","1","1","1","NA","0","0","0","0","0","27","27","27","27","27","0","0","5","0","27","27","0","0","NA","0","27","0","27","NA","0","27","27","12/08/16 11:07:08","The main experiment item","yes","v","W:\Sussex\Consciousness and control\Exp 1 - stroop suggestion and PCE\Methods\Palfi_script","no","mono","no","18","no","black","no","Ok","NA","no","Female","768","legacy","C:/Users/User/Dropbox/Sussex/Consciousness and control/Exp 1 - stroop suggestion and PCE/Methods/Palfi_script/laptop_size/subject-12_IC.csv","legacy","Interactive Ising","3.0.2","0","v","v","space","NA","757","757","2467","NA","2","legacy","1024","2","48000","-16","experiment","12","even","NA","NA","111397","155990","96780","240102","239530","240067","240862","241850","NA","NA","155991","74129","241098","239565","NA","2192","NA","NA","223171","65403","242300","NA","158459","239528","240102","Stroop IC","25","76847","31","yes","1366","GREEN"
"21","81.25","yes","81.25","25","2425","2425","#ffffff","no","practice","v;b;n;m","legacy","I have read and understood the information shown above","legacy","legacy","green","0","con","uniform","1","1","1","NA","0","0","0","0","0","28","28","28","28","28","0","0","5","0","28","28","0","0","NA","0","28","0","28","NA","0","28","28","12/08/16 11:07:08","The main experiment item","yes","n","W:\Sussex\Consciousness and control\Exp 1 - stroop suggestion and PCE\Methods\Palfi_script","no","mono","no","18","no","black","no","Ok","NA","no","Female","768","legacy","C:/Users/User/Dropbox/Sussex/Consciousness and control/Exp 1 - stroop suggestion and PCE/Methods/Palfi_script/laptop_size/subject-12_IC.csv","legacy","Interactive Ising","3.0.2","0","n","n","space","NA","761","761","2467","NA","2","legacy","1024","2","48000","-16","experiment","12","even","NA","NA","111397","155990","96780","243040","242468","243005","243803","244791","NA","NA","155991","74129","244039","242503","NA","2192","NA","NA","223171","65403","245241","NA","158459","242465","243040","Stroop IC","26","77608","32","yes","1366","GREEN"
"11","81.8181818182","yes","81.8181818182","25","2365","2365","#ffffff","no","practice","v;b;n;m","legacy","I have read and understood the information shown above","legacy","legacy","#ffef36","0","inc","uniform","1","1","1","NA","0","0","0","0","0","29","29","29","29","29","0","0","5","0","29","29","0","0","NA","0","29","0","29","NA","0","29","29","12/08/16 11:07:08","The main experiment item","yes","m","W:\Sussex\Consciousness and control\Exp 1 - stroop suggestion and PCE\Methods\Palfi_script","no","mono","no","18","no","black","no","Ok","NA","no","Female","768","legacy","C:/Users/User/Dropbox/Sussex/Consciousness and control/Exp 1 - stroop suggestion and PCE/Methods/Palfi_script/laptop_size/subject-12_IC.csv","legacy","Interactive Ising","3.0.2","0","m","m","space","NA","450","450","2467","NA","2","legacy","1024","2","48000","-16","experiment","12","even","NA","NA","111397","155990","96780","245979","245407","245944","246433","247422","NA","NA","155991","74129","246669","245442","NA","2192","NA","NA","223171","65403","247873","NA","158459","245405","245979","Stroop IC","27","78058","33","yes","1366","BLUE"
"12","82.3529411765","yes","82.3529411765","25","2319","2319","#ffffff","no","practice","v;b;n;m","legacy","I have read and understood the information shown above","legacy","legacy","#ffef36","0","inc","uniform","1","1","1","NA","0","0","0","0","0","30","30","30","30","30","0","0","5","0","30","30","0","0","NA","0","30","0","30","NA","0","30","30","12/08/16 11:07:08","The main experiment item","yes","m","W:\Sussex\Consciousness and control\Exp 1 - stroop suggestion and PCE\Methods\Palfi_script","no","mono","no","18","no","black","no","Ok","NA","no","Female","768","legacy","C:/Users/User/Dropbox/Sussex/Consciousness and control/Exp 1 - stroop suggestion and PCE/Methods/Palfi_script/laptop_size/subject-12_IC.csv","legacy","Interactive Ising","3.0.2","0","m","m","space","NA","809","809","2467","NA","2","legacy","1024","2","48000","-16","experiment","12","even","NA","NA","111397","155990","96780","248571","247999","248536","249383","250371","NA","NA","155991","74129","249619","248034","NA","2192","NA","NA","223171","65403","250821","NA","158459","247997","248571","Stroop IC","28","78867","34","yes","1366","GREEN"
"15","80","yes","80","25","2273","2273","#ffffff","no","practice","v;b;n;m","legacy","I have read and understood the information shown above","legacy","legacy","red","0","con","uniform","0","0","1","NA","0","0","0","0","0","31","31","31","31","31","0","0","5","0","31","31","0","0","NA","0","31","0","31","NA","0","31","31","12/08/16 11:07:08","The main experiment item","yes","v","W:\Sussex\Consciousness and control\Exp 1 - stroop suggestion and PCE\Methods\Palfi_script","no","mono","no","18","no","black","no","Ok","NA","no","Female","768","legacy","C:/Users/User/Dropbox/Sussex/Consciousness and control/Exp 1 - stroop suggestion and PCE/Methods/Palfi_script/laptop_size/subject-12_IC.csv","legacy","Interactive Ising","3.0.2","0","b","b","space","NA","697","697","2467","NA","2","legacy","1024","2","48000","-16","experiment","12","even","NA","NA","111397","155990","96780","251537","250964","251502","252237","253228","NA","NA","155991","74129","249619","251000","NA","2192","NA","NA","252476","65403","253678","NA","158459","250962","251537","Stroop IC","28","79564","35","yes","1366","RED"
"24","80.5555555556","yes","80.5555555556","25","2246","2246","#ffffff","no","practice","v;b;n;m","legacy","I have read and understood the information shown above","legacy","legacy","#ffef36","0","con","uniform","1","1","1","NA","0","0","0","0","0","32","32","32","32","32","0","0","5","0","32","32","0","0","NA","0","32","0","32","NA","0","32","32","12/08/16 11:07:08","The main experiment item","yes","m","W:\Sussex\Consciousness and control\Exp 1 - stroop suggestion and PCE\Methods\Palfi_script","no","mono","no","18","no","black","no","Ok","NA","no","Female","768","legacy","C:/Users/User/Dropbox/Sussex/Consciousness and control/Exp 1 - stroop suggestion and PCE/Methods/Palfi_script/laptop_size/subject-12_IC.csv","legacy","Interactive Ising","3.0.2","0","m","m","space","NA","1305","1305","2467","NA","2","legacy","1024","2","48000","-16","experiment","12","even","NA","NA","111397","155990","96780","254378","253806","254343","255687","256675","NA","NA","155991","74129","255923","253841","NA","2192","NA","NA","252476","65403","257125","NA","158459","253804","254378","Stroop IC","29","80869","36","yes","1366","YELLOW"
"10","81.0810810811","yes","81.0810810811","25","2201","2201","#ffffff","no","practice","v;b;n;m","legacy","I have read and understood the information shown above","legacy","legacy","#ffef36","0","inc","uniform","1","1","1","NA","0","0","0","0","0","33","33","33","33","33","0","0","5","0","33","33","0","0","NA","0","33","0","33","NA","0","33","33","12/08/16 11:07:08","The main experiment item","yes","m","W:\Sussex\Consciousness and control\Exp 1 - stroop suggestion and PCE\Methods\Palfi_script","no","mono","no","18","no","black","no","Ok","NA","no","Female","768","legacy","C:/Users/User/Dropbox/Sussex/Consciousness and control/Exp 1 - stroop suggestion and PCE/Methods/Palfi_script/laptop_size/subject-12_IC.csv","legacy","Interactive Ising","3.0.2","0","m","m","space","NA","594","594","2467","NA","2","legacy","1024","2","48000","-16","experiment","12","even","NA","NA","111397","155990","96780","257832","257259","257797","258429","259420","NA","NA","155991","74129","258666","257295","NA","2192","NA","NA","252476","65403","259870","NA","158459","257257","257832","Stroop IC","30","81463","37","yes","1366","RED"
"7","81.5789473684","yes","81.5789473684","25","2170","2170","#ffffff","no","practice","v;b;n;m","legacy","I have read and understood the information shown above","legacy","legacy","green","0","inc","uniform","1","1","1","NA","0","0","0","0","0","34","34","34","34","34","0","0","5","0","34","34","0","0","NA","0","34","0","34","NA","0","34","34","12/08/16 11:07:08","The main experiment item","yes","n","W:\Sussex\Consciousness and control\Exp 1 - stroop suggestion and PCE\Methods\Palfi_script","no","mono","no","18","no","black","no","Ok","NA","no","Female","768","legacy","C:/Users/User/Dropbox/Sussex/Consciousness and control/Exp 1 - stroop suggestion and PCE/Methods/Palfi_script/laptop_size/subject-12_IC.csv","legacy","Interactive Ising","3.0.2","0","n","n","space","NA","1003","1003","2467","NA","2","legacy","1024","2","48000","-16","experiment","12","even","NA","NA","111397","155990","96780","260701","260129","260666","261708","262696","NA","NA","155991","74129","261944","260164","NA","2192","NA","NA","252476","65403","263146","NA","158459","260127","260701","Stroop IC","31","82466","38","yes","1366","RED"
"22","82.0512820513","yes","82.0512820513","25","2134","2134","#ffffff","no","practice","v;b;n;m","legacy","I have read and understood the information shown above","legacy","legacy","#ffef36","0","con","uniform","1","1","1","NA","0","0","0","0","0","35","35","35","35","35","0","0","5","0","35","35","0","0","NA","0","35","0","35","NA","0","35","35","12/08/16 11:07:08","The main experiment item","yes","m","W:\Sussex\Consciousness and control\Exp 1 - stroop suggestion and PCE\Methods\Palfi_script","no","mono","no","18","no","black","no","Ok","NA","no","Female","768","legacy","C:/Users/User/Dropbox/Sussex/Consciousness and control/Exp 1 - stroop suggestion and PCE/Methods/Palfi_script/laptop_size/subject-12_IC.csv","legacy","Interactive Ising","3.0.2","0","m","m","space","NA","786","786","2467","NA","2","legacy","1024","2","48000","-16","experiment","12","even","NA","NA","111397","155990","96780","263880","263308","263845","264668","265660","NA","NA","155991","74129","264906","263343","NA","2192","NA","NA","252476","65403","266110","NA","158459","263305","263880","Stroop IC","32","83252","39","yes","1366","YELLOW"
"116","80.487804878","yes","80.487804878","25","2228","2228","#ffffff","no","I","v;b;n;m","legacy","I have read and understood the information shown above","legacy","legacy","green","0","neutral","uniform","0","0","1","NA","0","0","0","0","0","36","36","36","36","36","0","0","5","0","36","36","0","0","NA","0","36","0","36","NA","0","36","36","12/08/16 11:07:08","The main experiment item","yes","n","W:\Sussex\Consciousness and control\Exp 1 - stroop suggestion and PCE\Methods\Palfi_script","no","mono","no","18","no","black","no","Ok","NA","no","Female","768","legacy","C:/Users/User/Dropbox/Sussex/Consciousness and control/Exp 1 - stroop suggestion and PCE/Methods/Palfi_script/laptop_size/subject-12_IC.csv","legacy","Interactive Ising","3.0.2","0","m","m","space","NA","768","768","7331","NA","2","legacy","1024","2","48000","-16","experiment","12","even","NA","273487","111397","155990","96780","274164","273589","274127","274935","275926","266155","NA","266155","74129","264906","273625","NA","2192","NA","NA","275173","65403","276377","NA","158459","273587","274163","Stroop IC","33","91351","41","yes","1366","SHIP"
"107","80.9523809524","yes","80.9523809524","25","2190","2190","#ffffff","no","I","v;b;n;m","legacy","I have read and understood the information shown above","legacy","legacy","#ffef36","0","con","uniform","1","1","1","NA","0","0","0","0","0","37","37","37","37","37","0","0","5","0","37","37","0","0","NA","0","37","0","37","NA","0","37","37","12/08/16 11:07:08","The main experiment item","yes","m","W:\Sussex\Consciousness and control\Exp 1 - stroop suggestion and PCE\Methods\Palfi_script","no","mono","no","18","no","black","no","Ok","NA","no","Female","768","legacy","C:/Users/User/Dropbox/Sussex/Consciousness and control/Exp 1 - stroop suggestion and PCE/Methods/Palfi_script/laptop_size/subject-12_IC.csv","legacy","Interactive Ising","3.0.2","0","m","m","space","NA","650","650","7331","NA","2","legacy","1024","2","48000","-16","experiment","12","even","NA","273487","111397","155990","96780","277130","276556","277094","277782","278774","266155","NA","266155","74129","278021","276591","NA","2192","NA","NA","275173","65403","279224","NA","158459","276553","277129","Stroop IC","34","92001","42","yes","1366","YELLOW"
"70","81.3953488372","yes","81.3953488372","25","2156","2156","#ffffff","no","I","v;b;n;m","legacy","I have read and understood the information shown above","legacy","legacy","green","0","inc","uniform","1","1","1","NA","0","0","0","0","0","38","38","38","38","38","0","0","5","0","38","38","0","0","NA","0","38","0","38","NA","0","38","38","12/08/16 11:07:08","The main experiment item","yes","n","W:\Sussex\Consciousness and control\Exp 1 - stroop suggestion and PCE\Methods\Palfi_script","no","mono","no","18","no","black","no","Ok","NA","no","Female","768","legacy","C:/Users/User/Dropbox/Sussex/Consciousness and control/Exp 1 - stroop suggestion and PCE/Methods/Palfi_script/laptop_size/subject-12_IC.csv","legacy","Interactive Ising","3.0.2","0","n","n","space","NA","734","734","7331","NA","2","legacy","1024","2","48000","-16","experiment","12","even","NA","273487","111397","155990","96780","280009","279437","279974","280771","281762","266155","NA","266155","74129","281008","279472","NA","2192","NA","NA","275173","65403","282212","NA","158459","279435","280009","Stroop IC","35","92735","43","yes","1366","YELLOW"
"27","79.5454545455","yes","79.5454545455","25","2129","2129","#ffffff","no","I","v;b;n;m","legacy","I have read and understood the information shown above","legacy","legacy","blue","0","inc","uniform","0","0","1","NA","0","0","0","0","0","39","39","39","39","39","0","0","5","0","39","39","0","0","NA","0","39","0","39","NA","0","39","39","12/08/16 11:07:08","The main experiment item","yes","b","W:\Sussex\Consciousness and control\Exp 1 - stroop suggestion and PCE\Methods\Palfi_script","no","mono","no","18","no","black","no","Ok","NA","no","Female","768","legacy","C:/Users/User/Dropbox/Sussex/Consciousness and control/Exp 1 - stroop suggestion and PCE/Methods/Palfi_script/laptop_size/subject-12_IC.csv","legacy","Interactive Ising","3.0.2","0","v","v","space","NA","962","962","7331","NA","2","legacy","1024","2","48000","-16","experiment","12","even","NA","273487","111397","155990","96780","282987","282415","282952","283952","284941","266155","NA","266155","74129","281008","282450","NA","2192","NA","NA","284188","65403","285391","NA","158459","282413","282987","Stroop IC","35","93697","44","yes","1366","RED"
"39","80","yes","80","25","2101","2101","#ffffff","no","I","v;b;n;m","legacy","I have read and understood the information shown above","legacy","legacy","blue","0","inc","uniform","1","1","1","NA","0","0","0","0","0","40","40","40","40","40","0","0","5","0","40","40","0","0","NA","0","40","0","40","NA","0","40","40","12/08/16 11:07:08","The main experiment item","yes","b","W:\Sussex\Consciousness and control\Exp 1 - stroop suggestion and PCE\Methods\Palfi_script","no","mono","no","18","no","black","no","Ok","NA","no","Female","768","legacy","C:/Users/User/Dropbox/Sussex/Consciousness and control/Exp 1 - stroop suggestion and PCE/Methods/Palfi_script/laptop_size/subject-12_IC.csv","legacy","Interactive Ising","3.0.2","0","b","b","space","NA","886","886","7331","NA","2","legacy","1024","2","48000","-16","experiment","12","even","NA","273487","111397","155990","96780","286118","285546","286083","287007","287999","266155","NA","266155","74129","287245","285581","NA","2192","NA","NA","284188","65403","288449","NA","158459","285544","286118","Stroop IC","36","94583","45","yes","1366","GREEN"
"77","80.4347826087","yes","80.4347826087","25","2072","2072","#ffffff","no","I","v;b;n;m","legacy","I have read and understood the information shown above","legacy","legacy","#ffef36","0","inc","uniform","1","1","1","NA","0","0","0","0","0","41","41","41","41","41","0","0","5","0","41","41","0","0","NA","0","41","0","41","NA","0","41","41","12/08/16 11:07:08","The main experiment item","yes","m","W:\Sussex\Consciousness and control\Exp 1 - stroop suggestion and PCE\Methods\Palfi_script","no","mono","no","18","no","black","no","Ok","NA","no","Female","768","legacy","C:/Users/User/Dropbox/Sussex/Consciousness and control/Exp 1 - stroop suggestion and PCE/Methods/Palfi_script/laptop_size/subject-12_IC.csv","legacy","Interactive Ising","3.0.2","0","m","m","space","NA","773","773","7331","NA","2","legacy","1024","2","48000","-16","experiment","12","even","NA","273487","111397","155990","96780","289155","288583","289120","289931","290919","266155","NA","266155","74129","290167","288618","NA","2192","NA","NA","284188","65403","291369","NA","158459","288581","289155","Stroop IC","37","95356","46","yes","1366","RED"
"21","80.8510638298","yes","80.8510638298","25","2046","2046","#ffffff","no","I","v;b;n;m","legacy","I have read and understood the information shown above","legacy","legacy","red","0","inc","uniform","1","1","1","NA","0","0","0","0","0","42","42","42","42","42","0","0","5","0","42","42","0","0","NA","0","42","0","42","NA","0","42","42","12/08/16 11:07:08","The main experiment item","yes","v","W:\Sussex\Consciousness and control\Exp 1 - stroop suggestion and PCE\Methods\Palfi_script","no","mono","no","18","no","black","no","Ok","NA","no","Female","768","legacy","C:/Users/User/Dropbox/Sussex/Consciousness and control/Exp 1 - stroop suggestion and PCE/Methods/Palfi_script/laptop_size/subject-12_IC.csv","legacy","Interactive Ising","3.0.2","0","v","v","space","NA","819","819","7331","NA","2","legacy","1024","2","48000","-16","experiment","12","even","NA","273487","111397","155990","96780","292180","291607","292145","293002","293990","266155","NA","266155","74129","293238","291642","NA","2192","NA","NA","284188","65403","294440","NA","158459","291605","292180","Stroop IC","38","96175","47","yes","1366","YELLOW"
"55","81.25","yes","81.25","25","2030","2030","#ffffff","no","I","v;b;n;m","legacy","I have read and understood the information shown above","legacy","legacy","green","0","inc","uniform","1","1","1","NA","0","0","0","0","0","43","43","43","43","43","0","0","5","0","43","43","0","0","NA","0","43","0","43","NA","0","43","43","12/08/16 11:07:08","The main experiment item","yes","n","W:\Sussex\Consciousness and control\Exp 1 - stroop suggestion and PCE\Methods\Palfi_script","no","mono","no","18","no","black","no","Ok","NA","no","Female","768","legacy","C:/Users/User/Dropbox/Sussex/Consciousness and control/Exp 1 - stroop suggestion and PCE/Methods/Palfi_script/laptop_size/subject-12_IC.csv","legacy","Interactive Ising","3.0.2","0","n","n","space","NA","1265","1265","7331","NA","2","legacy","1024","2","48000","-16","experiment","12","even","NA","273487","111397","155990","96780","295157","294585","295122","296424","297412","266155","NA","266155","74129","296660","294620","NA","2192","NA","NA","284188","65403","297862","NA","158459","294582","295157","Stroop IC","39","97440","48","yes","1366","RED"
"60","79.5918367347","yes","79.5918367347","25","2006","2006","#ffffff","no","I","v;b;n;m","legacy","I have read and understood the information shown above","legacy","legacy","green","0","inc","uniform","0","0","1","NA","0","0","0","0","0","44","44","44","44","44","0","0","5","0","44","44","0","0","NA","0","44","0","44","NA","0","44","44","12/08/16 11:07:08","The main experiment item","yes","n","W:\Sussex\Consciousness and control\Exp 1 - stroop suggestion and PCE\Methods\Palfi_script","no","mono","no","18","no","black","no","Ok","NA","no","Female","768","legacy","C:/Users/User/Dropbox/Sussex/Consciousness and control/Exp 1 - stroop suggestion and PCE/Methods/Palfi_script/laptop_size/subject-12_IC.csv","legacy","Interactive Ising","3.0.2","0","b","b","space","NA","857","857","7331","NA","2","legacy","1024","2","48000","-16","experiment","12","even","NA","273487","111397","155990","96780","298597","298023","298561","299457","300447","266155","NA","266155","74129","296660","298058","NA","2192","NA","NA","299693","65403","300897","NA","158459","298020","298597","Stroop IC","39","98297","49","yes","1366","BLUE"
"62","78","yes","78","25","1978","1978","#ffffff","no","I","v;b;n;m","legacy","I have read and understood the information shown above","legacy","legacy","green","0","inc","uniform","0","0","1","NA","0","0","0","0","0","45","45","45","45","45","0","0","5","0","45","45","0","0","NA","0","45","0","45","NA","0","45","45","12/08/16 11:07:08","The main experiment item","yes","n","W:\Sussex\Consciousness and control\Exp 1 - stroop suggestion and PCE\Methods\Palfi_script","no","mono","no","18","no","black","no","Ok","NA","no","Female","768","legacy","C:/Users/User/Dropbox/Sussex/Consciousness and control/Exp 1 - stroop suggestion and PCE/Methods/Palfi_script/laptop_size/subject-12_IC.csv","legacy","Interactive Ising","3.0.2","0","v","v","space","NA","637","637","7331","NA","2","legacy","1024","2","48000","-16","experiment","12","even","NA","273487","111397","155990","96780","301666","301094","301631","302305","303294","266155","NA","266155","74129","296660","301129","NA","2192","NA","NA","302542","65403","303744","NA","158459","301092","301666","Stroop IC","39","98934","50","yes","1366","BLUE"
"93","78.431372549","yes","78.431372549","25","1962","1962","#ffffff","no","I","v;b;n;m","legacy","I have read and understood the information shown above","legacy","legacy","#ffef36","0","inc","uniform","1","1","1","NA","0","0","0","0","0","46","46","46","46","46","0","0","5","0","46","46","0","0","NA","0","46","0","46","NA","0","46","46","12/08/16 11:07:08","The main experiment item","yes","m","W:\Sussex\Consciousness and control\Exp 1 - stroop suggestion and PCE\Methods\Palfi_script","no","mono","no","18","no","black","no","Ok","NA","no","Female","768","legacy","C:/Users/User/Dropbox/Sussex/Consciousness and control/Exp 1 - stroop suggestion and PCE/Methods/Palfi_script/laptop_size/subject-12_IC.csv","legacy","Interactive Ising","3.0.2","0","m","m","space","NA","1151","1151","7331","NA","2","legacy","1024","2","48000","-16","experiment","12","even","NA","273487","111397","155990","96780","304462","303890","304427","305616","306604","266155","NA","266155","74129","305852","303925","NA","2192","NA","NA","302542","65403","307054","NA","158459","303888","304462","Stroop IC","40","100085","51","yes","1366","GREEN"
"73","78.8461538462","yes","78.8461538462","25","1939","1939","#ffffff","no","I","v;b;n;m","legacy","I have read and understood the information shown above","legacy","legacy","#ffef36","0","inc","uniform","1","1","1","NA","0","0","0","0","0","47","47","47","47","47","0","0","5","0","47","47","0","0","NA","0","47","0","47","NA","0","47","47","12/08/16 11:07:08","The main experiment item","yes","m","W:\Sussex\Consciousness and control\Exp 1 - stroop suggestion and PCE\Methods\Palfi_script","no","mono","no","18","no","black","no","Ok","NA","no","Female","768","legacy","C:/Users/User/Dropbox/Sussex/Consciousness and control/Exp 1 - stroop suggestion and PCE/Methods/Palfi_script/laptop_size/subject-12_IC.csv","legacy","Interactive Ising","3.0.2","0","m","m","space","NA","746","746","7331","NA","2","legacy","1024","2","48000","-16","experiment","12","even","NA","273487","111397","155990","96780","307760","307188","307725","308509","309497","266155","NA","266155","74129","308745","307223","NA","2192","NA","NA","302542","65403","309947","NA","158459","307185","307760","Stroop IC","41","100831","52","yes","1366","RED"
"36","77.358490566","yes","77.358490566","25","1918","1918","#ffffff","no","I","v;b;n;m","legacy","I have read and understood the information shown above","legacy","legacy","blue","0","inc","uniform","0","0","1","NA","0","0","0","0","0","48","48","48","48","48","0","0","5","0","48","48","0","0","NA","0","48","0","48","NA","0","48","48","12/08/16 11:07:08","The main experiment item","yes","b","W:\Sussex\Consciousness and control\Exp 1 - stroop suggestion and PCE\Methods\Palfi_script","no","mono","no","18","no","black","no","Ok","NA","no","Female","768","legacy","C:/Users/User/Dropbox/Sussex/Consciousness and control/Exp 1 - stroop suggestion and PCE/Methods/Palfi_script/laptop_size/subject-12_IC.csv","legacy","Interactive Ising","3.0.2","0","v","v","space","NA","845","845","7331","NA","2","legacy","1024","2","48000","-16","experiment","12","even","NA","273487","111397","155990","96780","310661","310089","310626","311509","312499","266155","NA","266155","74129","308745","310124","NA","2192","NA","NA","311747","65403","312949","NA","158459","310087","310661","Stroop IC","41","101676","53","yes","1366","GREEN"
"102","77.7777777778","yes","77.7777777778","25","1895","1895","#ffffff","no","I","v;b;n;m","legacy","I have read and understood the information shown above","legacy","legacy","blue","0","con","uniform","1","1","1","NA","0","0","0","0","0","49","49","49","49","49","0","0","5","0","49","49","0","0","NA","0","49","0","49","NA","0","49","49","12/08/16 11:07:08","The main experiment item","yes","b","W:\Sussex\Consciousness and control\Exp 1 - stroop suggestion and PCE\Methods\Palfi_script","no","mono","no","18","no","black","no","Ok","NA","no","Female","768","legacy","C:/Users/User/Dropbox/Sussex/Consciousness and control/Exp 1 - stroop suggestion and PCE/Methods/Palfi_script/laptop_size/subject-12_IC.csv","legacy","Interactive Ising","3.0.2","0","b","b","space","NA","690","690","7331","NA","2","legacy","1024","2","48000","-16","experiment","12","even","NA","273487","111397","155990","96780","313663","313090","313628","314355","315345","266155","NA","266155","74129","314592","313126","NA","2192","NA","NA","311747","65403","315795","NA","158459","313088","313663","Stroop IC","42","102366","54","yes","1366","BLUE"
"15","78.1818181818","yes","78.1818181818","25","1876","1876","#ffffff","no","I","v;b;n;m","legacy","I have read and understood the information shown above","legacy","legacy","red","0","inc","uniform","1","1","1","NA","0","0","0","0","0","50","50","50","50","50","0","0","5","0","50","50","0","0","NA","0","50","0","50","NA","0","50","50","12/08/16 11:07:08","The main experiment item","yes","v","W:\Sussex\Consciousness and control\Exp 1 - stroop suggestion and PCE\Methods\Palfi_script","no","mono","no","18","no","black","no","Ok","NA","no","Female","768","legacy","C:/Users/User/Dropbox/Sussex/Consciousness and control/Exp 1 - stroop suggestion and PCE/Methods/Palfi_script/laptop_size/subject-12_IC.csv","legacy","Interactive Ising","3.0.2","0","v","v","space","NA","817","817","7331","NA","2","legacy","1024","2","48000","-16","experiment","12","even","NA","273487","111397","155990","96780","316493","315921","316458","317313","318303","266155","NA","266155","74129","317551","315956","NA","2192","NA","NA","311747","65403","318753","NA","158459","315918","316493","Stroop IC","43","103183","55","yes","1366","GREEN"
"103","78.5714285714","yes","78.5714285714","25","1863","1863","#ffffff","no","I","v;b;n;m","legacy","I have read and understood the information shown above","legacy","legacy","green","0","con","uniform","1","1","1","NA","0","0","0","0","0","51","51","51","51","51","0","0","5","0","51","51","0","0","NA","0","51","0","51","NA","0","51","51","12/08/16 11:07:08","The main experiment item","yes","n","W:\Sussex\Consciousness and control\Exp 1 - stroop suggestion and PCE\Methods\Palfi_script","no","mono","no","18","no","black","no","Ok","NA","no","Female","768","legacy","C:/Users/User/Dropbox/Sussex/Consciousness and control/Exp 1 - stroop suggestion and PCE/Methods/Palfi_script/laptop_size/subject-12_IC.csv","legacy","Interactive Ising","3.0.2","0","n","n","space","NA","1150","1150","7331","NA","2","legacy","1024","2","48000","-16","experiment","12","even","NA","273487","111397","155990","96780","319445","318872","319410","320598","321586","266155","NA","266155","74129","320834","318908","NA","2192","NA","NA","311747","65403","322036","NA","158459","318870","319445","Stroop IC","44","104333","56","yes","1366","GREEN"
"2","78.9473684211","yes","78.9473684211","25","1842","1842","#ffffff","no","I","v;b;n;m","legacy","I have read and understood the information shown above","legacy","legacy","red","0","inc","uniform","1","1","1","NA","0","0","0","0","0","52","52","52","52","52","0","0","5","0","52","52","0","0","NA","0","52","0","52","NA","0","52","52","12/08/16 11:07:08","The main experiment item","yes","v","W:\Sussex\Consciousness and control\Exp 1 - stroop suggestion and PCE\Methods\Palfi_script","no","mono","no","18","no","black","no","Ok","NA","no","Female","768","legacy","C:/Users/User/Dropbox/Sussex/Consciousness and control/Exp 1 - stroop suggestion and PCE/Methods/Palfi_script/laptop_size/subject-12_IC.csv","legacy","Interactive Ising","3.0.2","0","v","v","space","NA","695","695","7331","NA","2","legacy","1024","2","48000","-16","experiment","12","even","NA","273487","111397","155990","96780","322737","322164","322701","323435","324423","266155","NA","266155","74129","323671","322199","NA","2192","NA","NA","311747","65403","324873","NA","158459","322162","322737","Stroop IC","45","105028","57","yes","1366","BLUE"
"30","79.3103448276","yes","79.3103448276","25","1821","1821","#ffffff","no","I","v;b;n;m","legacy","I have read and understood the information shown above","legacy","legacy","blue","0","inc","uniform","1","1","1","NA","0","0","0","0","0","53","53","53","53","53","0","0","5","0","53","53","0","0","NA","0","53","0","53","NA","0","53","53","12/08/16 11:07:08","The main experiment item","yes","b","W:\Sussex\Consciousness and control\Exp 1 - stroop suggestion and PCE\Methods\Palfi_script","no","mono","no","18","no","black","no","Ok","NA","no","Female","768","legacy","C:/Users/User/Dropbox/Sussex/Consciousness and control/Exp 1 - stroop suggestion and PCE/Methods/Palfi_script/laptop_size/subject-12_IC.csv","legacy","Interactive Ising","3.0.2","0","b","b","space","NA","612","612","7331","NA","2","legacy","1024","2","48000","-16","experiment","12","even","NA","273487","111397","155990","96780","325630","325058","325595","326245","327234","266155","NA","266155","74129","326481","325093","NA","2192","NA","NA","311747","65403","327685","NA","158459","325056","325630","Stroop IC","46","105640","58","yes","1366","RED"
"101","79.6610169492","yes","79.6610169492","25","1803","1803","#ffffff","no","I","v;b;n;m","legacy","I have read and understood the information shown above","legacy","legacy","blue","0","con","uniform","1","1","1","NA","0","0","0","0","0","54","54","54","54","54","0","0","5","0","54","54","0","0","NA","0","54","0","54","NA","0","54","54","12/08/16 11:07:08","The main experiment item","yes","b","W:\Sussex\Consciousness and control\Exp 1 - stroop suggestion and PCE\Methods\Palfi_script","no","mono","no","18","no","black","no","Ok","NA","no","Female","768","legacy","C:/Users/User/Dropbox/Sussex/Consciousness and control/Exp 1 - stroop suggestion and PCE/Methods/Palfi_script/laptop_size/subject-12_IC.csv","legacy","Interactive Ising","3.0.2","0","b","b","space","NA","763","763","7331","NA","2","legacy","1024","2","48000","-16","experiment","12","even","NA","273487","111397","155990","96780","328434","327862","328399","329200","330190","266155","NA","266155","74129","329436","327897","NA","2192","NA","NA","311747","65403","330640","NA","158459","327860","328434","Stroop IC","47","106403","59","yes","1366","BLUE"
"6","80","yes","80","25","1783","1783","#ffffff","no","I","v;b;n;m","legacy","I have read and understood the information shown above","legacy","legacy","red","0","inc","uniform","1","1","1","NA","0","0","0","0","0","55","55","55","55","55","0","0","5","0","55","55","0","0","NA","0","55","0","55","NA","0","55","55","12/08/16 11:07:08","The main experiment item","yes","v","W:\Sussex\Consciousness and control\Exp 1 - stroop suggestion and PCE\Methods\Palfi_script","no","mono","no","18","no","black","no","Ok","NA","no","Female","768","legacy","C:/Users/User/Dropbox/Sussex/Consciousness and control/Exp 1 - stroop suggestion and PCE/Methods/Palfi_script/laptop_size/subject-12_IC.csv","legacy","Interactive Ising","3.0.2","0","v","v","space","NA","587","587","7331","NA","2","legacy","1024","2","48000","-16","experiment","12","even","NA","273487","111397","155990","96780","331385","330812","331350","331975","332966","266155","NA","266155","74129","332211","330848","NA","2192","NA","NA","311747","65403","333416","NA","158459","330809","331385","Stroop IC","48","106990","60","yes","1366","BLUE"
"29","80.3278688525","yes","80.3278688525","25","1767","1767","#ffffff","no","I","v;b;n;m","legacy","I have read and understood the information shown above","legacy","legacy","blue","0","inc","uniform","1","1","1","NA","0","0","0","0","0","56","56","56","56","56","0","0","5","0","56","56","0","0","NA","0","56","0","56","NA","0","56","56","12/08/16 11:07:08","The main experiment item","yes","b","W:\Sussex\Consciousness and control\Exp 1 - stroop suggestion and PCE\Methods\Palfi_script","no","mono","no","18","no","black","no","Ok","NA","no","Female","768","legacy","C:/Users/User/Dropbox/Sussex/Consciousness and control/Exp 1 - stroop suggestion and PCE/Methods/Palfi_script/laptop_size/subject-12_IC.csv","legacy","Interactive Ising","3.0.2","0","b","b","space","NA","839","839","7331","NA","2","legacy","1024","2","48000","-16","experiment","12","even","NA","273487","111397","155990","96780","334176","333603","334141","335018","336006","266155","NA","266155","74129","335254","333639","NA","2192","NA","NA","311747","65403","336456","NA","158459","333601","334176","Stroop IC","49","107829","61","yes","1366","RED"
"57","80.6451612903","yes","80.6451612903","25","1748","1748","#ffffff","no","I","v;b;n;m","legacy","I have read and understood the information shown above","legacy","legacy","green","0","inc","uniform","1","1","1","NA","0","0","0","0","0","57","57","57","57","57","0","0","5","0","57","57","0","0","NA","0","57","0","57","NA","0","57","57","12/08/16 11:07:08","The main experiment item","yes","n","W:\Sussex\Consciousness and control\Exp 1 - stroop suggestion and PCE\Methods\Palfi_script","no","mono","no","18","no","black","no","Ok","NA","no","Female","768","legacy","C:/Users/User/Dropbox/Sussex/Consciousness and control/Exp 1 - stroop suggestion and PCE/Methods/Palfi_script/laptop_size/subject-12_IC.csv","legacy","Interactive Ising","3.0.2","0","n","n","space","NA","579","579","7331","NA","2","legacy","1024","2","48000","-16","experiment","12","even","NA","273487","111397","155990","96780","337166","336594","337131","337748","338739","266155","NA","266155","74129","337985","336629","NA","2192","NA","NA","311747","65403","339189","NA","158459","336591","337166","Stroop IC","50","108408","62","yes","1366","BLUE"
"96","80.9523809524","yes","80.9523809524","25","1727","1727","#ffffff","no","I","v;b;n;m","legacy","I have read and understood the information shown above","legacy","legacy","#ffef36","0","inc","uniform","1","1","1","NA","0","0","0","0","0","58","58","58","58","58","0","0","5","0","58","58","0","0","NA","0","58","0","58","NA","0","58","58","12/08/16 11:07:08","The main experiment item","yes","m","W:\Sussex\Consciousness and control\Exp 1 - stroop suggestion and PCE\Methods\Palfi_script","no","mono","no","18","no","black","no","Ok","NA","no","Female","768","legacy","C:/Users/User/Dropbox/Sussex/Consciousness and control/Exp 1 - stroop suggestion and PCE/Methods/Palfi_script/laptop_size/subject-12_IC.csv","legacy","Interactive Ising","3.0.2","0","m","m","space","NA","419","419","7331","NA","2","legacy","1024","2","48000","-16","experiment","12","even","NA","273487","111397","155990","96780","339904","339332","339869","340326","341315","266155","NA","266155","74129","340563","339367","NA","2192","NA","NA","311747","65403","341765","NA","158459","339330","339904","Stroop IC","51","108827","63","yes","1366","GREEN"
"56","79.6875","yes","79.6875","25","1710","1710","#ffffff","no","I","v;b;n;m","legacy","I have read and understood the information shown above","legacy","legacy","green","0","inc","uniform","0","0","1","NA","0","0","0","0","0","59","59","59","59","59","0","0","5","0","59","59","0","0","NA","0","59","0","59","NA","0","59","59","12/08/16 11:07:08","The main experiment item","yes","n","W:\Sussex\Consciousness and control\Exp 1 - stroop suggestion and PCE\Methods\Palfi_script","no","mono","no","18","no","black","no","Ok","NA","no","Female","768","legacy","C:/Users/User/Dropbox/Sussex/Consciousness and control/Exp 1 - stroop suggestion and PCE/Methods/Palfi_script/laptop_size/subject-12_IC.csv","legacy","Interactive Ising","3.0.2","0","b","b","space","NA","660","660","7331","NA","2","legacy","1024","2","48000","-16","experiment","12","even","NA","273487","111397","155990","96780","342477","341904","342442","343140","344130","266155","NA","266155","74129","340563","341940","NA","2192","NA","NA","343378","65403","344580","NA","158459","341902","342477","Stroop IC","51","109487","64","yes","1366","RED"
"86","80","yes","80","25","1700","1700","#ffffff","no","I","v;b;n;m","legacy","I have read and understood the information shown above","legacy","legacy","#ffef36","0","inc","uniform","1","1","1","NA","0","0","0","0","0","60","60","60","60","60","0","0","5","0","60","60","0","0","NA","0","60","0","60","NA","0","60","60","12/08/16 11:07:08","The main experiment item","yes","m","W:\Sussex\Consciousness and control\Exp 1 - stroop suggestion and PCE\Methods\Palfi_script","no","mono","no","18","no","black","no","Ok","NA","no","Female","768","legacy","C:/Users/User/Dropbox/Sussex/Consciousness and control/Exp 1 - stroop suggestion and PCE/Methods/Palfi_script/laptop_size/subject-12_IC.csv","legacy","Interactive Ising","3.0.2","0","m","m","space","NA","1019","1019","7331","NA","2","legacy","1024","2","48000","-16","experiment","12","even","NA","273487","111397","155990","96780","345362","344787","345327","346384","347373","266155","NA","266155","74129","346620","344823","NA","2192","NA","NA","343378","65403","347823","NA","158459","344785","345362","Stroop IC","52","110506","65","yes","1366","BLUE"
"43","78.7878787879","yes","78.7878787879","25","1689","1689","#ffffff","no","I","v;b;n;m","legacy","I have read and understood the information shown above","legacy","legacy","blue","0","inc","uniform","0","0","1","NA","0","0","0","0","0","61","61","61","61","61","0","0","5","0","61","61","0","0","NA","0","61","0","61","NA","0","61","61","12/08/16 11:07:08","The main experiment item","yes","b","W:\Sussex\Consciousness and control\Exp 1 - stroop suggestion and PCE\Methods\Palfi_script","no","mono","no","18","no","black","no","Ok","NA","no","Female","768","legacy","C:/Users/User/Dropbox/Sussex/Consciousness and control/Exp 1 - stroop suggestion and PCE/Methods/Palfi_script/laptop_size/subject-12_IC.csv","legacy","Interactive Ising","3.0.2","0","v","v","space","NA","980","980","7331","NA","2","legacy","1024","2","48000","-16","experiment","12","even","NA","273487","111397","155990","96780","348544","347971","348509","349527","350518","266155","NA","266155","74129","346620","348007","NA","2192","NA","NA","349763","65403","350968","NA","158459","347969","348544","Stroop IC","52","111486","66","yes","1366","YELLOW"
"108","79.1044776119","yes","79.1044776119","25","1675","1675","#ffffff","no","I","v;b;n;m","legacy","I have read and understood the information shown above","legacy","legacy","#ffef36","0","con","uniform","1","1","1","NA","0","0","0","0","0","62","62","62","62","62","0","0","5","0","62","62","0","0","NA","0","62","0","62","NA","0","62","62","12/08/16 11:07:08","The main experiment item","yes","m","W:\Sussex\Consciousness and control\Exp 1 - stroop suggestion and PCE\Methods\Palfi_script","no","mono","no","18","no","black","no","Ok","NA","no","Female","768","legacy","C:/Users/User/Dropbox/Sussex/Consciousness and control/Exp 1 - stroop suggestion and PCE/Methods/Palfi_script/laptop_size/subject-12_IC.csv","legacy","Interactive Ising","3.0.2","0","m","m","space","NA","798","798","7331","NA","2","legacy","1024","2","48000","-16","experiment","12","even","NA","273487","111397","155990","96780","351693","351120","351657","352494","353482","266155","NA","266155","74129","352730","351155","NA","2192","NA","NA","349763","65403","353932","NA","158459","351117","351692","Stroop IC","53","112284","67","yes","1366","YELLOW"
"115","79.4117647059","yes","79.4117647059","25","1663","1663","#ffffff","no","I","v;b;n;m","legacy","I have read and understood the information shown above","legacy","legacy","green","0","neutral","uniform","1","1","1","NA","0","0","0","0","0","63","63","63","63","63","0","0","5","0","63","63","0","0","NA","0","63","0","63","NA","0","63","63","12/08/16 11:07:08","The main experiment item","yes","n","W:\Sussex\Consciousness and control\Exp 1 - stroop suggestion and PCE\Methods\Palfi_script","no","mono","no","18","no","black","no","Ok","NA","no","Female","768","legacy","C:/Users/User/Dropbox/Sussex/Consciousness and control/Exp 1 - stroop suggestion and PCE/Methods/Palfi_script/laptop_size/subject-12_IC.csv","legacy","Interactive Ising","3.0.2","0","n","n","space","NA","826","826","7331","NA","2","legacy","1024","2","48000","-16","experiment","12","even","NA","273487","111397","155990","96780","354651","354079","354616","355480","356468","266155","NA","266155","74129","355716","354114","NA","2192","NA","NA","349763","65403","356918","NA","158459","354077","354651","Stroop IC","54","113110","68","yes","1366","LOT"
"112","79.7101449275","yes","79.7101449275","25","1649","1649","#ffffff","no","I","v;b;n;m","legacy","I have read and understood the information shown above","legacy","legacy","blue","0","neutral","uniform","1","1","1","NA","0","0","0","0","0","64","64","64","64","64","0","0","5","0","64","64","0","0","NA","0","64","0","64","NA","0","64","64","12/08/16 11:07:08","The main experiment item","yes","b","W:\Sussex\Consciousness and control\Exp 1 - stroop suggestion and PCE\Methods\Palfi_script","no","mono","no","18","no","black","no","Ok","NA","no","Female","768","legacy","C:/Users/User/Dropbox/Sussex/Consciousness and control/Exp 1 - stroop suggestion and PCE/Methods/Palfi_script/laptop_size/subject-12_IC.csv","legacy","Interactive Ising","3.0.2","0","b","b","space","NA","697","697","7331","NA","2","legacy","1024","2","48000","-16","experiment","12","even","NA","273487","111397","155990","96780","357731","357159","357696","358431","359419","266155","NA","266155","74129","358667","357194","NA","2192","NA","NA","349763","65403","359869","NA","158459","357157","357731","Stroop IC","55","113807","69","yes","1366","LOT"
"66","78.5714285714","yes","78.5714285714","25","1637","1637","#ffffff","no","I","v;b;n;m","legacy","I have read and understood the information shown above","legacy","legacy","green","0","inc","uniform","0","0","1","NA","0","0","0","0","0","65","65","65","65","65","0","0","5","0","65","65","0","0","NA","0","65","0","65","NA","0","65","65","12/08/16 11:07:08","The main experiment item","yes","n","W:\Sussex\Consciousness and control\Exp 1 - stroop suggestion and PCE\Methods\Palfi_script","no","mono","no","18","no","black","no","Ok","NA","no","Female","768","legacy","C:/Users/User/Dropbox/Sussex/Consciousness and control/Exp 1 - stroop suggestion and PCE/Methods/Palfi_script/laptop_size/subject-12_IC.csv","legacy","Interactive Ising","3.0.2","0","m","m","space","NA","816","816","7331","NA","2","legacy","1024","2","48000","-16","experiment","12","even","NA","273487","111397","155990","96780","360638","360066","360603","361457","362446","266155","NA","266155","74129","358667","360101","NA","2192","NA","NA","361693","65403","362897","NA","158459","360064","360638","Stroop IC","55","114623","70","yes","1366","YELLOW"
"5","78.8732394366","yes","78.8732394366","25","1626","1626","#ffffff","no","I","v;b;n;m","legacy","I have read and understood the information shown above","legacy","legacy","red","0","inc","uniform","1","1","1","NA","0","0","0","0","0","66","66","66","66","66","0","0","5","0","66","66","0","0","NA","0","66","0","66","NA","0","66","66","12/08/16 11:07:08","The main experiment item","yes","v","W:\Sussex\Consciousness and control\Exp 1 - stroop suggestion and PCE\Methods\Palfi_script","no","mono","no","18","no","black","no","Ok","NA","no","Female","768","legacy","C:/Users/User/Dropbox/Sussex/Consciousness and control/Exp 1 - stroop suggestion and PCE/Methods/Palfi_script/laptop_size/subject-12_IC.csv","legacy","Interactive Ising","3.0.2","0","v","v","space","NA","834","834","7331","NA","2","legacy","1024","2","48000","-16","experiment","12","even","NA","273487","111397","155990","96780","363627","363054","363592","364464","365452","266155","NA","266155","74129","364700","363090","NA","2192","NA","NA","361693","65403","365902","NA","158459","363052","363627","Stroop IC","56","115457","71","yes","1366","BLUE"
"24","79.1666666667","yes","79.1666666667","25","1620","1620","#ffffff","no","I","v;b;n;m","legacy","I have read and understood the information shown above","legacy","legacy","red","0","inc","uniform","1","1","1","NA","0","0","0","0","0","67","67","67","67","67","0","0","5","0","67","67","0","0","NA","0","67","0","67","NA","0","67","67","12/08/16 11:07:08","The main experiment item","yes","v","W:\Sussex\Consciousness and control\Exp 1 - stroop suggestion and PCE\Methods\Palfi_script","no","mono","no","18","no","black","no","Ok","NA","no","Female","768","legacy","C:/Users/User/Dropbox/Sussex/Consciousness and control/Exp 1 - stroop suggestion and PCE/Methods/Palfi_script/laptop_size/subject-12_IC.csv","legacy","Interactive Ising","3.0.2","0","v","v","space","NA","1209","1209","7331","NA","2","legacy","1024","2","48000","-16","experiment","12","even","NA","273487","111397","155990","96780","366618","366046","366583","367831","368821","266155","NA","266155","74129","368069","366081","NA","2192","NA","NA","361693","65403","369271","NA","158459","366043","366618","Stroop IC","57","116666","72","yes","1366","YELLOW"
"75","79.4520547945","yes","79.4520547945","25","1611","1611","#ffffff","no","I","v;b;n;m","legacy","I have read and understood the information shown above","legacy","legacy","#ffef36","0","inc","uniform","1","1","1","NA","0","0","0","0","0","68","68","68","68","68","0","0","5","0","68","68","0","0","NA","0","68","0","68","NA","0","68","68","12/08/16 11:07:08","The main experiment item","yes","m","W:\Sussex\Consciousness and control\Exp 1 - stroop suggestion and PCE\Methods\Palfi_script","no","mono","no","18","no","black","no","Ok","NA","no","Female","768","legacy","C:/Users/User/Dropbox/Sussex/Consciousness and control/Exp 1 - stroop suggestion and PCE/Methods/Palfi_script/laptop_size/subject-12_IC.csv","legacy","Interactive Ising","3.0.2","0","m","m","space","NA","944","944","7331","NA","2","legacy","1024","2","48000","-16","experiment","12","even","NA","273487","111397","155990","96780","370018","369446","369983","370965","371953","266155","NA","266155","74129","371201","369481","NA","2192","NA","NA","361693","65403","372403","NA","158459","369443","370018","Stroop IC","58","117610","73","yes","1366","RED"
"81","79.7297297297","yes","79.7297297297","25","1596","1596","#ffffff","no","I","v;b;n;m","legacy","I have read and understood the information shown above","legacy","legacy","#ffef36","0","inc","uniform","1","1","1","NA","0","0","0","0","0","69","69","69","69","69","0","0","5","0","69","69","0","0","NA","0","69","0","69","NA","0","69","69","12/08/16 11:07:08","The main experiment item","yes","m","W:\Sussex\Consciousness and control\Exp 1 - stroop suggestion and PCE\Methods\Palfi_script","no","mono","no","18","no","black","no","Ok","NA","no","Female","768","legacy","C:/Users/User/Dropbox/Sussex/Consciousness and control/Exp 1 - stroop suggestion and PCE/Methods/Palfi_script/laptop_size/subject-12_IC.csv","legacy","Interactive Ising","3.0.2","0","m","m","space","NA","525","525","7331","NA","2","legacy","1024","2","48000","-16","experiment","12","even","NA","273487","111397","155990","96780","373147","372575","373112","373675","374665","266155","NA","266155","74129","373911","372610","NA","2192","NA","NA","361693","65403","375115","NA","158459","372573","373147","Stroop IC","59","118135","74","yes","1366","BLUE"
"84","80","yes","80","25","1583","1583","#ffffff","no","I","v;b;n;m","legacy","I have read and understood the information shown above","legacy","legacy","#ffef36","0","inc","uniform","1","1","1","NA","0","0","0","0","0","70","70","70","70","70","0","0","5","0","70","70","0","0","NA","0","70","0","70","NA","0","70","70","12/08/16 11:07:08","The main experiment item","yes","m","W:\Sussex\Consciousness and control\Exp 1 - stroop suggestion and PCE\Methods\Palfi_script","no","mono","no","18","no","black","no","Ok","NA","no","Female","768","legacy","C:/Users/User/Dropbox/Sussex/Consciousness and control/Exp 1 - stroop suggestion and PCE/Methods/Palfi_script/laptop_size/subject-12_IC.csv","legacy","Interactive Ising","3.0.2","0","m","m","space","NA","592","592","7331","NA","2","legacy","1024","2","48000","-16","experiment","12","even","NA","273487","111397","155990","96780","375833","375261","375798","376428","377416","266155","NA","266155","74129","376664","375296","NA","2192","NA","NA","361693","65403","377866","NA","158459","375259","375833","Stroop IC","60","118727","75","yes","1366","BLUE"
"120","80.2631578947","yes","80.2631578947","25","1569","1569","#ffffff","no","I","v;b;n;m","legacy","I have read and understood the information shown above","legacy","legacy","#ffef36","0","neutral","uniform","1","1","1","NA","0","0","0","0","0","71","71","71","71","71","0","0","5","0","71","71","0","0","NA","0","71","0","71","NA","0","71","71","12/08/16 11:07:08","The main experiment item","yes","m","W:\Sussex\Consciousness and control\Exp 1 - stroop suggestion and PCE\Methods\Palfi_script","no","mono","no","18","no","black","no","Ok","NA","no","Female","768","legacy","C:/Users/User/Dropbox/Sussex/Consciousness and control/Exp 1 - stroop suggestion and PCE/Methods/Palfi_script/laptop_size/subject-12_IC.csv","legacy","Interactive Ising","3.0.2","0","m","m","space","NA","537","537","7331","NA","2","legacy","1024","2","48000","-16","experiment","12","even","NA","273487","111397","155990","96780","378579","378007","378544","379119","380107","266155","NA","266155","74129","379355","378042","NA","2192","NA","NA","361693","65403","380557","NA","158459","378004","378579","Stroop IC","61","119264","76","yes","1366","KNIFE"
"79","80.5194805195","yes","80.5194805195","25","1554","1554","#ffffff","no","I","v;b;n;m","legacy","I have read and understood the information shown above","legacy","legacy","#ffef36","0","inc","uniform","1","1","1","NA","0","0","0","0","0","72","72","72","72","72","0","0","5","0","72","72","0","0","NA","0","72","0","72","NA","0","72","72","12/08/16 11:07:08","The main experiment item","yes","m","W:\Sussex\Consciousness and control\Exp 1 - stroop suggestion and PCE\Methods\Palfi_script","no","mono","no","18","no","black","no","Ok","NA","no","Female","768","legacy","C:/Users/User/Dropbox/Sussex/Consciousness and control/Exp 1 - stroop suggestion and PCE/Methods/Palfi_script/laptop_size/subject-12_IC.csv","legacy","Interactive Ising","3.0.2","0","m","m","space","NA","464","464","7331","NA","2","legacy","1024","2","48000","-16","experiment","12","even","NA","273487","111397","155990","96780","381272","380699","381237","381739","382729","266155","NA","266155","74129","381977","380735","NA","2192","NA","NA","361693","65403","383179","NA","158459","380697","381272","Stroop IC","62","119728","77","yes","1366","RED"
"12","80.7692307692","yes","80.7692307692","25","1544","1544","#ffffff","no","I","v;b;n;m","legacy","I have read and understood the information shown above","legacy","legacy","red","0","inc","uniform","1","1","1","NA","0","0","0","0","0","73","73","73","73","73","0","0","5","0","73","73","0","0","NA","0","73","0","73","NA","0","73","73","12/08/16 11:07:08","The main experiment item","yes","v","W:\Sussex\Consciousness and control\Exp 1 - stroop suggestion and PCE\Methods\Palfi_script","no","mono","no","18","no","black","no","Ok","NA","no","Female","768","legacy","C:/Users/User/Dropbox/Sussex/Consciousness and control/Exp 1 - stroop suggestion and PCE/Methods/Palfi_script/laptop_size/subject-12_IC.csv","legacy","Interactive Ising","3.0.2","0","v","v","space","NA","748","748","7331","NA","2","legacy","1024","2","48000","-16","experiment","12","even","NA","273487","111397","155990","96780","383928","383356","383893","384679","385667","266155","NA","266155","74129","384915","383391","NA","2192","NA","NA","361693","65403","386117","NA","158459","383354","383928","Stroop IC","63","120476","78","yes","1366","GREEN"
"105","79.746835443","yes","79.746835443","25","1532","1532","#ffffff","no","I","v;b;n;m","legacy","I have read and understood the information shown above","legacy","legacy","green","0","con","uniform","0","0","1","NA","0","0","0","0","0","74","74","74","74","74","0","0","5","0","74","74","0","0","NA","0","74","0","74","NA","0","74","74","12/08/16 11:07:08","The main experiment item","yes","n","W:\Sussex\Consciousness and control\Exp 1 - stroop suggestion and PCE\Methods\Palfi_script","no","mono","no","18","no","black","no","Ok","NA","no","Female","768","legacy","C:/Users/User/Dropbox/Sussex/Consciousness and control/Exp 1 - stroop suggestion and PCE/Methods/Palfi_script/laptop_size/subject-12_IC.csv","legacy","Interactive Ising","3.0.2","0","m","m","space","NA","621","621","7331","NA","2","legacy","1024","2","48000","-16","experiment","12","even","NA","273487","111397","155990","96780","386825","386252","386790","387449","388441","266155","NA","266155","74129","384915","386288","NA","2192","NA","NA","387687","65403","388892","NA","158459","386250","386825","Stroop IC","63","121097","79","yes","1366","GREEN"
"18","78.75","yes","78.75","25","1523","1523","#ffffff","no","I","v;b;n;m","legacy","I have read and understood the information shown above","legacy","legacy","red","0","inc","uniform","0","0","1","NA","0","0","0","0","0","75","75","75","75","75","0","0","5","0","75","75","0","0","NA","0","75","0","75","NA","0","75","75","12/08/16 11:07:08","The main experiment item","yes","v","W:\Sussex\Consciousness and control\Exp 1 - stroop suggestion and PCE\Methods\Palfi_script","no","mono","no","18","no","black","no","Ok","NA","no","Female","768","legacy","C:/Users/User/Dropbox/Sussex/Consciousness and control/Exp 1 - stroop suggestion and PCE/Methods/Palfi_script/laptop_size/subject-12_IC.csv","legacy","Interactive Ising","3.0.2","0","b","b","space","NA","771","771","7331","NA","2","legacy","1024","2","48000","-16","experiment","12","even","NA","273487","111397","155990","96780","389616","389044","389581","390390","391380","266155","NA","266155","74129","384915","389079","NA","2192","NA","NA","390626","65403","391830","NA","158459","389041","389616","Stroop IC","63","121868","80","yes","1366","YELLOW"
"90","79.012345679","yes","79.012345679","25","1513","1513","#ffffff","no","I","v;b;n;m","legacy","I have read and understood the information shown above","legacy","legacy","#ffef36","0","inc","uniform","1","1","1","NA","0","0","0","0","0","76","76","76","76","76","0","0","5","0","76","76","0","0","NA","0","76","0","76","NA","0","76","76","12/08/16 11:07:08","The main experiment item","yes","m","W:\Sussex\Consciousness and control\Exp 1 - stroop suggestion and PCE\Methods\Palfi_script","no","mono","no","18","no","black","no","Ok","NA","no","Female","768","legacy","C:/Users/User/Dropbox/Sussex/Consciousness and control/Exp 1 - stroop suggestion and PCE/Methods/Palfi_script/laptop_size/subject-12_IC.csv","legacy","Interactive Ising","3.0.2","0","m","m","space","NA","710","710","7331","NA","2","legacy","1024","2","48000","-16","experiment","12","even","NA","273487","111397","155990","96780","392538","391966","392503","393251","394241","266155","NA","266155","74129","393489","392001","NA","2192","NA","NA","390626","65403","394691","NA","158459","391964","392538","Stroop IC","64","122578","81","yes","1366","GREEN"
"69","79.2682926829","yes","79.2682926829","25","1502","1502","#ffffff","no","I","v;b;n;m","legacy","I have read and understood the information shown above","legacy","legacy","green","0","inc","uniform","1","1","1","NA","0","0","0","0","0","77","77","77","77","77","0","0","5","0","77","77","0","0","NA","0","77","0","77","NA","0","77","77","12/08/16 11:07:08","The main experiment item","yes","n","W:\Sussex\Consciousness and control\Exp 1 - stroop suggestion and PCE\Methods\Palfi_script","no","mono","no","18","no","black","no","Ok","NA","no","Female","768","legacy","C:/Users/User/Dropbox/Sussex/Consciousness and control/Exp 1 - stroop suggestion and PCE/Methods/Palfi_script/laptop_size/subject-12_IC.csv","legacy","Interactive Ising","3.0.2","0","n","n","space","NA","643","643","7331","NA","2","legacy","1024","2","48000","-16","experiment","12","even","NA","273487","111397","155990","96780","395444","394872","395409","396090","397082","266155","NA","266155","74129","396328","394907","NA","2192","NA","NA","390626","65403","397532","NA","158459","394870","395444","Stroop IC","65","123221","82","yes","1366","YELLOW"
"76","78.313253012","yes","78.313253012","25","1495","1495","#ffffff","no","I","v;b;n;m","legacy","I have read and understood the information shown above","legacy","legacy","#ffef36","0","inc","uniform","0","0","1","NA","0","0","0","0","0","78","78","78","78","78","0","0","5","0","78","78","0","0","NA","0","78","0","78","NA","0","78","78","12/08/16 11:07:08","The main experiment item","yes","m","W:\Sussex\Consciousness and control\Exp 1 - stroop suggestion and PCE\Methods\Palfi_script","no","mono","no","18","no","black","no","Ok","NA","no","Female","768","legacy","C:/Users/User/Dropbox/Sussex/Consciousness and control/Exp 1 - stroop suggestion and PCE/Methods/Palfi_script/laptop_size/subject-12_IC.csv","legacy","Interactive Ising","3.0.2","0","b","b","space","NA","937","937","7331","NA","2","legacy","1024","2","48000","-16","experiment","12","even","NA","273487","111397","155990","96780","398281","397708","398245","399221","400211","266155","NA","266155","74129","396328","397743","NA","2192","NA","NA","399457","65403","400661","NA","158459","397706","398281","Stroop IC","65","124158","83","yes","1366","RED"
"42","78.5714285714","yes","78.5714285714","25","1486","1486","#ffffff","no","I","v;b;n;m","legacy","I have read and understood the information shown above","legacy","legacy","blue","0","inc","uniform","1","1","1","NA","0","0","0","0","0","79","79","79","79","79","0","0","5","0","79","79","0","0","NA","0","79","0","79","NA","0","79","79","12/08/16 11:07:08","The main experiment item","yes","b","W:\Sussex\Consciousness and control\Exp 1 - stroop suggestion and PCE\Methods\Palfi_script","no","mono","no","18","no","black","no","Ok","NA","no","Female","768","legacy","C:/Users/User/Dropbox/Sussex/Consciousness and control/Exp 1 - stroop suggestion and PCE/Methods/Palfi_script/laptop_size/subject-12_IC.csv","legacy","Interactive Ising","3.0.2","0","b","b","space","NA","705","705","7331","NA","2","legacy","1024","2","48000","-16","experiment","12","even","NA","273487","111397","155990","96780","401409","400837","401374","402117","403107","266155","NA","266155","74129","402355","400872","NA","2192","NA","NA","399457","65403","403558","NA","158459","400835","401409","Stroop IC","66","124863","84","yes","1366","YELLOW"
"46","78.8235294118","yes","78.8235294118","25","1474","1474","#ffffff","no","I","v;b;n;m","legacy","I have read and understood the information shown above","legacy","legacy","blue","0","inc","uniform","1","1","1","NA","0","0","0","0","0","80","80","80","80","80","0","0","5","0","80","80","0","0","NA","0","80","0","80","NA","0","80","80","12/08/16 11:07:08","The main experiment item","yes","b","W:\Sussex\Consciousness and control\Exp 1 - stroop suggestion and PCE\Methods\Palfi_script","no","mono","no","18","no","black","no","Ok","NA","no","Female","768","legacy","C:/Users/User/Dropbox/Sussex/Consciousness and control/Exp 1 - stroop suggestion and PCE/Methods/Palfi_script/laptop_size/subject-12_IC.csv","legacy","Interactive Ising","3.0.2","0","b","b","space","NA","443","443","7331","NA","2","legacy","1024","2","48000","-16","experiment","12","even","NA","273487","111397","155990","96780","404342","403768","404306","404788","405781","266155","NA","266155","74129","405026","403804","NA","2192","NA","NA","399457","65403","406232","NA","158459","403766","404342","Stroop IC","67","125306","85","yes","1366","YELLOW"
"97","79.0697674419","yes","79.0697674419","25","1464","1464","#ffffff","no","I","v;b;n;m","legacy","I have read and understood the information shown above","legacy","legacy","red","0","con","uniform","1","1","1","NA","0","0","0","0","0","81","81","81","81","81","0","0","5","0","81","81","0","0","NA","0","81","0","81","NA","0","81","81","12/08/16 11:07:08","The main experiment item","yes","v","W:\Sussex\Consciousness and control\Exp 1 - stroop suggestion and PCE\Methods\Palfi_script","no","mono","no","18","no","black","no","Ok","NA","no","Female","768","legacy","C:/Users/User/Dropbox/Sussex/Consciousness and control/Exp 1 - stroop suggestion and PCE/Methods/Palfi_script/laptop_size/subject-12_IC.csv","legacy","Interactive Ising","3.0.2","0","v","v","space","NA","650","650","7331","NA","2","legacy","1024","2","48000","-16","experiment","12","even","NA","273487","111397","155990","96780","406960","406388","406925","407613","408603","266155","NA","266155","74129","407851","406423","NA","2192","NA","NA","399457","65403","409053","NA","158459","406386","406960","Stroop IC","68","125956","86","yes","1366","RED"
"80","79.3103448276","yes","79.3103448276","25","1454","1454","#ffffff","no","I","v;b;n;m","legacy","I have read and understood the information shown above","legacy","legacy","#ffef36","0","inc","uniform","1","1","1","NA","0","0","0","0","0","82","82","82","82","82","0","0","5","0","82","82","0","0","NA","0","82","0","82","NA","0","82","82","12/08/16 11:07:08","The main experiment item","yes","m","W:\Sussex\Consciousness and control\Exp 1 - stroop suggestion and PCE\Methods\Palfi_script","no","mono","no","18","no","black","no","Ok","NA","no","Female","768","legacy","C:/Users/User/Dropbox/Sussex/Consciousness and control/Exp 1 - stroop suggestion and PCE/Methods/Palfi_script/laptop_size/subject-12_IC.csv","legacy","Interactive Ising","3.0.2","0","m","m","space","NA","600","600","7331","NA","2","legacy","1024","2","48000","-16","experiment","12","even","NA","273487","111397","155990","96780","409774","409202","409739","410377","411365","266155","NA","266155","74129","410613","409237","NA","2192","NA","NA","399457","65403","411826","NA","158459","409200","409774","Stroop IC","69","126556","87","yes","1366","RED"
"11","79.5454545455","yes","79.5454545455","25","1452","1452","#ffffff","no","I","v;b;n;m","legacy","I have read and understood the information shown above","legacy","legacy","red","0","inc","uniform","1","1","1","NA","0","0","0","0","0","83","83","83","83","83","0","0","5","0","83","83","0","0","NA","0","83","0","83","NA","0","83","83","12/08/16 11:07:08","The main experiment item","yes","v","W:\Sussex\Consciousness and control\Exp 1 - stroop suggestion and PCE\Methods\Palfi_script","no","mono","no","18","no","black","no","Ok","NA","no","Female","768","legacy","C:/Users/User/Dropbox/Sussex/Consciousness and control/Exp 1 - stroop suggestion and PCE/Methods/Palfi_script/laptop_size/subject-12_IC.csv","legacy","Interactive Ising","3.0.2","0","v","v","space","NA","1256","1256","7331","NA","2","legacy","1024","2","48000","-16","experiment","12","even","NA","273487","111397","155990","96780","412540","411967","412505","413799","414787","266155","NA","266155","74129","414035","412003","NA","2192","NA","NA","399457","65403","415237","NA","158459","411965","412540","Stroop IC","70","127812","88","yes","1366","GREEN"
"92","79.7752808989","yes","79.7752808989","25","1443","1443","#ffffff","no","I","v;b;n;m","legacy","I have read and understood the information shown above","legacy","legacy","#ffef36","0","inc","uniform","1","1","1","NA","0","0","0","0","0","84","84","84","84","84","0","0","5","0","84","84","0","0","NA","0","84","0","84","NA","0","84","84","12/08/16 11:07:08","The main experiment item","yes","m","W:\Sussex\Consciousness and control\Exp 1 - stroop suggestion and PCE\Methods\Palfi_script","no","mono","no","18","no","black","no","Ok","NA","no","Female","768","legacy","C:/Users/User/Dropbox/Sussex/Consciousness and control/Exp 1 - stroop suggestion and PCE/Methods/Palfi_script/laptop_size/subject-12_IC.csv","legacy","Interactive Ising","3.0.2","0","m","m","space","NA","649","649","7331","NA","2","legacy","1024","2","48000","-16","experiment","12","even","NA","273487","111397","155990","96780","415954","415382","415919","416606","417595","266155","NA","266155","74129","416843","415417","NA","2192","NA","NA","399457","65403","418045","NA","158459","415379","415954","Stroop IC","71","128461","89","yes","1366","GREEN"
"20","78.8888888889","yes","78.8888888889","25","1436","1436","#ffffff","no","I","v;b;n;m","legacy","I have read and understood the information shown above","legacy","legacy","red","0","inc","uniform","0","0","1","NA","0","0","0","0","0","85","85","85","85","85","0","0","5","0","85","85","0","0","NA","0","85","0","85","NA","0","85","85","12/08/16 11:07:08","The main experiment item","yes","v","W:\Sussex\Consciousness and control\Exp 1 - stroop suggestion and PCE\Methods\Palfi_script","no","mono","no","18","no","black","no","Ok","NA","no","Female","768","legacy","C:/Users/User/Dropbox/Sussex/Consciousness and control/Exp 1 - stroop suggestion and PCE/Methods/Palfi_script/laptop_size/subject-12_IC.csv","legacy","Interactive Ising","3.0.2","0","b","b","space","NA","820","820","7331","NA","2","legacy","1024","2","48000","-16","experiment","12","even","NA","273487","111397","155990","96780","418833","418261","418798","419656","420644","266155","NA","266155","74129","416843","418296","NA","2192","NA","NA","419892","65403","421094","NA","158459","418259","418833","Stroop IC","71","129281","90","yes","1366","YELLOW"
"91","79.1208791209","yes","79.1208791209","25","1432","1432","#ffffff","no","I","v;b;n;m","legacy","I have read and understood the information shown above","legacy","legacy","#ffef36","0","inc","uniform","1","1","1","NA","0","0","0","0","0","86","86","86","86","86","0","0","5","0","86","86","0","0","NA","0","86","0","86","NA","0","86","86","12/08/16 11:07:08","The main experiment item","yes","m","W:\Sussex\Consciousness and control\Exp 1 - stroop suggestion and PCE\Methods\Palfi_script","no","mono","no","18","no","black","no","Ok","NA","no","Female","768","legacy","C:/Users/User/Dropbox/Sussex/Consciousness and control/Exp 1 - stroop suggestion and PCE/Methods/Palfi_script/laptop_size/subject-12_IC.csv","legacy","Interactive Ising","3.0.2","0","m","m","space","NA","1079","1079","7331","NA","2","legacy","1024","2","48000","-16","experiment","12","even","NA","273487","111397","155990","96780","421800","421228","421765","422883","423873","266155","NA","266155","74129","423121","421263","NA","2192","NA","NA","419892","65403","424323","NA","158459","421225","421800","Stroop IC","72","130360","91","yes","1366","GREEN"
