ID,acc,accept_status,accuracy,age,average_response_time,avg_rt,background,bidi,block,buttons,canvas_backend,checkbox_status,clock_backend,color_backend,colour,compensation,congruency,coordinates,correct,correct_answer,correct_button_block,correct_new_keyboard_response,count_C,count_I,count_Instruction,count_Practice_start,count_age,count_answer,count_blank,count_blank2,count_blank3,count_blank_4,count_break,count_break2,count_button_block,count_consent_form,count_correct_feedback,count_cross,count_end,count_experiment,count_feedback,count_gender,count_incorrect_feedback,count_information_sheet,count_logger,count_new_keyboard_response,count_practice,count_stroop,count_target,datetime,description,disable_garbage_collection,expected,experiment_file,experiment_path,font_bold,font_family,font_italic,font_size,font_underline,foreground,form_clicks,form_response,form_var,fullscreen,gender,height,keyboard_backend,live_row,live_row_practice,logfile,mouse_backend,opensesame_codename,opensesame_version,repeat_cycle,response,response_answer,response_button_block,response_new_keyboard_response,response_time,response_time_answer,response_time_button_block,response_time_new_keyboard_response,round_decimals,sampler_backend,sound_buf_size,sound_channels,sound_freq,sound_sample_size,start,subject_nr,subject_parity,time_C,time_I,time_Instruction,time_Practice_start,time_age,time_answer,time_blank,time_blank2,time_blank3,time_blank_4,time_break,time_break2,time_button_block,time_consent_form,time_correct_feedback,time_cross,time_end,time_experiment,time_feedback,time_gender,time_incorrect_feedback,time_information_sheet,time_logger,time_new_keyboard_response,time_practice,time_stroop,time_target,title,total_correct,total_response_time,total_responses,uniform_coordinates,width,word
16,75,yes,75,22,5344.75,5344.75,#ffffff,no,practice,v;b;n;m,legacy,I have read and understood the information shown above,legacy,legacy,blue,0,con,uniform,0,0,1,NA,0,0,0,0,0,0,0,0,0,0,0,0,5,0,0,0,0,0,NA,0,0,0,0,NA,0,0,0,12/06/2016 21:45,The main experiment item,yes,b,IC_RSI2000.osexp,C:\Users\user\Downloads,no,mono,no,18,no,black,no,Ok,NA,yes,Female,768,legacy,0,0,C:/Users/User/Dropbox/Sussex/Consciousness and control/Exp 1 - stroop suggestion and PCE/Methods/Palfi_script/laptop_size/subject-7.csv,legacy,Jazzy James,3.1.2,0,v,v,space,NA,579,579,10483,NA,2,legacy,1024,2,48000,-16,experiment,0,even,NA,NA,9945,12916,8232,15337,14760,15300,15920,16913,NA,NA,4129,4129,NA,14796,NA,1665,NA,NA,16158,1665,17363,NA,14613,14756,15337,Stroop CI,3,21379,4,yes,1366,BLUE
1,60,yes,60,22,4354.4,4354.4,#ffffff,no,practice,v;b;n;m,legacy,I have read and understood the information shown above,legacy,legacy,red,0,inc,uniform,0,0,1,NA,0,0,0,0,0,1,1,1,1,1,0,0,5,0,1,1,0,0,NA,0,1,0,1,NA,0,1,1,12/06/2016 21:45,The main experiment item,yes,v,IC_RSI2000.osexp,C:\Users\user\Downloads,no,mono,no,18,no,black,no,Ok,NA,yes,Female,768,legacy,1,1,C:/Users/User/Dropbox/Sussex/Consciousness and control/Exp 1 - stroop suggestion and PCE/Methods/Palfi_script/laptop_size/subject-7.csv,legacy,Jazzy James,3.1.2,0,b,b,space,NA,393,393,10483,NA,2,legacy,1024,2,48000,-16,experiment,0,even,NA,NA,9945,12916,8232,18189,17611,18151,18586,19579,NA,NA,4129,4129,NA,17647,NA,1665,NA,NA,18824,1665,20029,NA,14613,17607,18189,Stroop CI,3,21772,5,yes,1366,BLUE
13,50,yes,50,22,3753.666667,3753.666667,#ffffff,no,practice,v;b;n;m,legacy,I have read and understood the information shown above,legacy,legacy,red,0,con,uniform,0,0,1,NA,0,0,0,0,0,2,2,2,2,2,0,0,5,0,2,2,0,0,NA,0,2,0,2,NA,0,2,2,12/06/2016 21:45,The main experiment item,yes,v,IC_RSI2000.osexp,C:\Users\user\Downloads,no,mono,no,18,no,black,no,Ok,NA,yes,Female,768,legacy,2,2,C:/Users/User/Dropbox/Sussex/Consciousness and control/Exp 1 - stroop suggestion and PCE/Methods/Palfi_script/laptop_size/subject-7.csv,legacy,Jazzy James,3.1.2,0,n,n,space,NA,750,750,10483,NA,2,legacy,1024,2,48000,-16,experiment,0,even,NA,NA,9945,12916,8232,20797,20220,20760,21551,22542,NA,NA,4129,4129,NA,20256,NA,1665,NA,NA,21789,1665,22992,NA,14613,20216,20797,Stroop CI,3,22522,6,yes,1366,RED
24,57.14285714,yes,57.14285714,22,3361.142857,3361.142857,#ffffff,no,practice,v;b;n;m,legacy,I have read and understood the information shown above,legacy,legacy,#ffef36,0,con,uniform,1,1,1,NA,0,0,0,0,0,3,3,3,3,3,0,0,5,0,3,3,0,0,NA,0,3,0,3,NA,0,3,3,12/06/2016 21:45,The main experiment item,yes,m,IC_RSI2000.osexp,C:\Users\user\Downloads,no,mono,no,18,no,black,no,Ok,NA,yes,Female,768,legacy,3,3,C:/Users/User/Dropbox/Sussex/Consciousness and control/Exp 1 - stroop suggestion and PCE/Methods/Palfi_script/laptop_size/subject-7.csv,legacy,Jazzy James,3.1.2,0,m,m,space,NA,1006,1006,10483,NA,2,legacy,1024,2,48000,-16,experiment,0,even,NA,NA,9945,12916,8232,23758,23174,23715,24768,25761,NA,NA,4129,4129,25006,23211,NA,1665,NA,NA,21789,1665,26211,NA,14613,23171,23758,Stroop CI,4,23528,7,yes,1366,YELLOW
10,62.5,yes,62.5,22,3039.75,3039.75,#ffffff,no,practice,v;b;n;m,legacy,I have read and understood the information shown above,legacy,legacy,#ffef36,0,inc,uniform,1,1,1,NA,0,0,0,0,0,4,4,4,4,4,0,0,5,0,4,4,0,0,NA,0,4,0,4,NA,0,4,4,12/06/2016 21:45,The main experiment item,yes,m,IC_RSI2000.osexp,C:\Users\user\Downloads,no,mono,no,18,no,black,no,Ok,NA,yes,Female,768,legacy,4,4,C:/Users/User/Dropbox/Sussex/Consciousness and control/Exp 1 - stroop suggestion and PCE/Methods/Palfi_script/laptop_size/subject-7.csv,legacy,Jazzy James,3.1.2,0,m,m,space,NA,790,790,10483,NA,2,legacy,1024,2,48000,-16,experiment,0,even,NA,NA,9945,12916,8232,26978,26399,26939,27772,28764,NA,NA,4129,4129,28010,26435,NA,1665,NA,NA,21789,1665,29214,NA,14613,26396,26978,Stroop CI,5,24318,8,yes,1366,RED
8,66.66666667,yes,66.66666667,22,2775.444444,2775.444444,#ffffff,no,practice,v;b;n;m,legacy,I have read and understood the information shown above,legacy,legacy,green,0,inc,uniform,1,1,1,NA,0,0,0,0,0,5,5,5,5,5,0,0,5,0,5,5,0,0,NA,0,5,0,5,NA,0,5,5,12/06/2016 21:45,The main experiment item,yes,n,IC_RSI2000.osexp,C:\Users\user\Downloads,no,mono,no,18,no,black,no,Ok,NA,yes,Female,768,legacy,5,5,C:/Users/User/Dropbox/Sussex/Consciousness and control/Exp 1 - stroop suggestion and PCE/Methods/Palfi_script/laptop_size/subject-7.csv,legacy,Jazzy James,3.1.2,0,n,n,space,NA,661,661,10483,NA,2,legacy,1024,2,48000,-16,experiment,0,even,NA,NA,9945,12916,8232,30001,29425,29964,30666,31658,NA,NA,4129,4129,30904,29461,NA,1665,NA,NA,21789,1665,32108,NA,14613,29420,30000,Stroop CI,6,24979,9,yes,1366,BLUE
30,60,yes,60,22,2554.9,2554.9,#ffffff,no,practice,v;b;n;m,legacy,I have read and understood the information shown above,legacy,legacy,blue,0,neutral,uniform,0,0,1,NA,0,0,0,0,0,6,6,6,6,6,0,0,5,0,6,6,0,0,NA,0,6,0,6,NA,0,6,6,12/06/2016 21:45,The main experiment item,yes,b,IC_RSI2000.osexp,C:\Users\user\Downloads,no,mono,no,18,no,black,no,Ok,NA,yes,Female,768,legacy,6,6,C:/Users/User/Dropbox/Sussex/Consciousness and control/Exp 1 - stroop suggestion and PCE/Methods/Palfi_script/laptop_size/subject-7.csv,legacy,Jazzy James,3.1.2,0,v,v,space,NA,570,570,10483,NA,2,legacy,1024,2,48000,-16,experiment,0,even,NA,NA,9945,12916,8232,32828,32251,32791,33402,34394,NA,NA,4129,4129,30904,32287,NA,1665,NA,NA,33640,1665,34844,NA,14613,32248,32828,Stroop CI,6,25549,10,yes,1366,FLOWER
20,63.63636364,yes,63.63636364,22,2403.272727,2403.272727,#ffffff,no,practice,v;b;n;m,legacy,I have read and understood the information shown above,legacy,legacy,green,0,con,uniform,1,1,1,NA,0,0,0,0,0,7,7,7,7,7,0,0,5,0,7,7,0,0,NA,0,7,0,7,NA,0,7,7,12/06/2016 21:45,The main experiment item,yes,n,IC_RSI2000.osexp,C:\Users\user\Downloads,no,mono,no,18,no,black,no,Ok,NA,yes,Female,768,legacy,7,7,C:/Users/User/Dropbox/Sussex/Consciousness and control/Exp 1 - stroop suggestion and PCE/Methods/Palfi_script/laptop_size/subject-7.csv,legacy,Jazzy James,3.1.2,0,n,n,space,NA,887,887,10483,NA,2,legacy,1024,2,48000,-16,experiment,0,even,NA,NA,9945,12916,8232,35606,35028,35568,36497,37491,NA,NA,4129,4129,36736,35064,NA,1665,NA,NA,33640,1665,37942,NA,14613,35024,35606,Stroop CI,7,26436,11,yes,1366,GREEN
23,66.66666667,yes,66.66666667,22,2249.75,2249.75,#ffffff,no,practice,v;b;n;m,legacy,I have read and understood the information shown above,legacy,legacy,#ffef36,0,con,uniform,1,1,1,NA,0,0,0,0,0,8,8,8,8,8,0,0,5,0,8,8,0,0,NA,0,8,0,8,NA,0,8,8,12/06/2016 21:45,The main experiment item,yes,m,IC_RSI2000.osexp,C:\Users\user\Downloads,no,mono,no,18,no,black,no,Ok,NA,yes,Female,768,legacy,8,8,C:/Users/User/Dropbox/Sussex/Consciousness and control/Exp 1 - stroop suggestion and PCE/Methods/Palfi_script/laptop_size/subject-7.csv,legacy,Jazzy James,3.1.2,0,m,m,space,NA,561,561,10483,NA,2,legacy,1024,2,48000,-16,experiment,0,even,NA,NA,9945,12916,8232,38691,38114,38654,39256,40248,NA,NA,4129,4129,39494,38150,NA,1665,NA,NA,33640,1665,40698,NA,14613,38110,38691,Stroop CI,8,26997,12,yes,1366,YELLOW
4,69.23076923,yes,69.23076923,22,2124.384615,2124.384615,#ffffff,no,practice,v;b;n;m,legacy,I have read and understood the information shown above,legacy,legacy,blue,0,inc,uniform,1,1,1,NA,0,0,0,0,0,9,9,9,9,9,0,0,5,0,9,9,0,0,NA,0,9,0,9,NA,0,9,9,12/06/2016 21:45,The main experiment item,yes,b,IC_RSI2000.osexp,C:\Users\user\Downloads,no,mono,no,18,no,black,no,Ok,NA,yes,Female,768,legacy,9,9,C:/Users/User/Dropbox/Sussex/Consciousness and control/Exp 1 - stroop suggestion and PCE/Methods/Palfi_script/laptop_size/subject-7.csv,legacy,Jazzy James,3.1.2,0,b,b,space,NA,620,620,10483,NA,2,legacy,1024,2,48000,-16,experiment,0,even,NA,NA,9945,12916,8232,41443,40866,41406,42067,43059,NA,NA,4129,4129,42305,40902,NA,1665,NA,NA,33640,1665,43509,NA,14613,40863,41443,Stroop CI,9,27617,13,yes,1366,RED
26,71.42857143,yes,71.42857143,22,2015.285714,2015.285714,#ffffff,no,practice,v;b;n;m,legacy,I have read and understood the information shown above,legacy,legacy,red,0,neutral,uniform,1,1,1,NA,0,0,0,0,0,10,10,10,10,10,0,0,5,0,10,10,0,0,NA,0,10,0,10,NA,0,10,10,12/06/2016 21:45,The main experiment item,yes,v,IC_RSI2000.osexp,C:\Users\user\Downloads,no,mono,no,18,no,black,no,Ok,NA,yes,Female,768,legacy,10,10,C:/Users/User/Dropbox/Sussex/Consciousness and control/Exp 1 - stroop suggestion and PCE/Methods/Palfi_script/laptop_size/subject-7.csv,legacy,Jazzy James,3.1.2,0,v,v,space,NA,597,597,10483,NA,2,legacy,1024,2,48000,-16,experiment,0,even,NA,NA,9945,12916,8232,44257,43679,44220,44859,45850,NA,NA,4129,4129,45097,43716,NA,1665,NA,NA,33640,1665,46300,NA,14613,43676,44257,Stroop CI,10,28214,14,yes,1366,KNIFE
33,73.33333333,yes,73.33333333,22,1934.4,1934.4,#ffffff,no,practice,v;b;n;m,legacy,I have read and understood the information shown above,legacy,legacy,green,0,neutral,uniform,1,1,1,NA,0,0,0,0,0,11,11,11,11,11,0,0,5,0,11,11,0,0,NA,0,11,0,11,NA,0,11,11,12/06/2016 21:45,The main experiment item,yes,n,IC_RSI2000.osexp,C:\Users\user\Downloads,no,mono,no,18,no,black,no,Ok,NA,yes,Female,768,legacy,11,11,C:/Users/User/Dropbox/Sussex/Consciousness and control/Exp 1 - stroop suggestion and PCE/Methods/Palfi_script/laptop_size/subject-7.csv,legacy,Jazzy James,3.1.2,0,n,n,space,NA,802,802,10483,NA,2,legacy,1024,2,48000,-16,experiment,0,even,NA,NA,9945,12916,8232,47065,46487,47027,47871,48864,NA,NA,4129,4129,48109,46523,NA,1665,NA,NA,33640,1665,49315,NA,14613,46484,47064,Stroop CI,11,29016,15,yes,1366,FLOWER
31,75,yes,75,22,1853.75,1853.75,#ffffff,no,practice,v;b;n;m,legacy,I have read and understood the information shown above,legacy,legacy,green,0,neutral,uniform,1,1,1,NA,0,0,0,0,0,12,12,12,12,12,0,0,5,0,12,12,0,0,NA,0,12,0,12,NA,0,12,12,12/06/2016 21:45,The main experiment item,yes,n,IC_RSI2000.osexp,C:\Users\user\Downloads,no,mono,no,18,no,black,no,Ok,NA,yes,Female,768,legacy,12,12,C:/Users/User/Dropbox/Sussex/Consciousness and control/Exp 1 - stroop suggestion and PCE/Methods/Palfi_script/laptop_size/subject-7.csv,legacy,Jazzy James,3.1.2,0,n,n,space,NA,644,644,10483,NA,2,legacy,1024,2,48000,-16,experiment,0,even,NA,NA,9945,12916,8232,50083,49507,50047,50730,51724,NA,NA,4129,4129,50969,49544,NA,1665,NA,NA,33640,1665,52174,NA,14613,49504,50083,Stroop CI,12,29660,16,yes,1366,LOT
21,76.47058824,yes,76.47058824,22,1771.647059,1771.647059,#ffffff,no,practice,v;b;n;m,legacy,I have read and understood the information shown above,legacy,legacy,green,0,con,uniform,1,1,1,NA,0,0,0,0,0,13,13,13,13,13,0,0,5,0,13,13,0,0,NA,0,13,0,13,NA,0,13,13,12/06/2016 21:45,The main experiment item,yes,n,IC_RSI2000.osexp,C:\Users\user\Downloads,no,mono,no,18,no,black,no,Ok,NA,yes,Female,768,legacy,13,13,C:/Users/User/Dropbox/Sussex/Consciousness and control/Exp 1 - stroop suggestion and PCE/Methods/Palfi_script/laptop_size/subject-7.csv,legacy,Jazzy James,3.1.2,0,n,n,space,NA,458,458,10483,NA,2,legacy,1024,2,48000,-16,experiment,0,even,NA,NA,9945,12916,8232,52916,52339,52880,53379,54371,NA,NA,4129,4129,53617,52376,NA,1665,NA,NA,33640,1665,54821,NA,14613,52336,52916,Stroop CI,13,30118,17,yes,1366,GREEN
19,77.77777778,yes,77.77777778,22,1694.055556,1694.055556,#ffffff,no,practice,v;b;n;m,legacy,I have read and understood the information shown above,legacy,legacy,green,0,con,uniform,1,1,1,NA,0,0,0,0,0,14,14,14,14,14,0,0,5,0,14,14,0,0,NA,0,14,0,14,NA,0,14,14,12/06/2016 21:45,The main experiment item,yes,n,IC_RSI2000.osexp,C:\Users\user\Downloads,no,mono,no,18,no,black,no,Ok,NA,yes,Female,768,legacy,14,14,C:/Users/User/Dropbox/Sussex/Consciousness and control/Exp 1 - stroop suggestion and PCE/Methods/Palfi_script/laptop_size/subject-7.csv,legacy,Jazzy James,3.1.2,0,n,n,space,NA,375,375,10483,NA,2,legacy,1024,2,48000,-16,experiment,0,even,NA,NA,9945,12916,8232,55542,54964,55505,55921,56913,NA,NA,4129,4129,56159,55001,NA,1665,NA,NA,33640,1665,57364,NA,14613,54961,55542,Stroop CI,14,30493,18,yes,1366,GREEN
36,78.94736842,yes,78.94736842,22,1633.157895,1633.157895,#ffffff,no,practice,v;b;n;m,legacy,I have read and understood the information shown above,legacy,legacy,#ffef36,0,neutral,uniform,1,1,1,NA,0,0,0,0,0,15,15,15,15,15,0,0,5,0,15,15,0,0,NA,0,15,0,15,NA,0,15,15,12/06/2016 21:45,The main experiment item,yes,m,IC_RSI2000.osexp,C:\Users\user\Downloads,no,mono,no,18,no,black,no,Ok,NA,yes,Female,768,legacy,15,15,C:/Users/User/Dropbox/Sussex/Consciousness and control/Exp 1 - stroop suggestion and PCE/Methods/Palfi_script/laptop_size/subject-7.csv,legacy,Jazzy James,3.1.2,0,m,m,space,NA,537,537,10483,NA,2,legacy,1024,2,48000,-16,experiment,0,even,NA,NA,9945,12916,8232,58128,57550,58091,58669,59662,NA,NA,4129,4129,58908,57587,NA,1665,NA,NA,33640,1665,60113,NA,14613,57547,58128,Stroop CI,15,31030,19,yes,1366,KNIFE
12,80,yes,80,22,1587.6,1587.6,#ffffff,no,practice,v;b;n;m,legacy,I have read and understood the information shown above,legacy,legacy,#ffef36,0,inc,uniform,1,1,1,NA,0,0,0,0,0,16,16,16,16,16,0,0,5,0,16,16,0,0,NA,0,16,0,16,NA,0,16,16,12/06/2016 21:45,The main experiment item,yes,m,IC_RSI2000.osexp,C:\Users\user\Downloads,no,mono,no,18,no,black,no,Ok,NA,yes,Female,768,legacy,16,16,C:/Users/User/Dropbox/Sussex/Consciousness and control/Exp 1 - stroop suggestion and PCE/Methods/Palfi_script/laptop_size/subject-7.csv,legacy,Jazzy James,3.1.2,0,m,m,space,NA,722,722,10483,NA,2,legacy,1024,2,48000,-16,experiment,0,even,NA,NA,9945,12916,8232,60897,60322,60861,61623,62616,NA,NA,4129,4129,61861,60358,NA,1665,NA,NA,33640,1665,63066,NA,14613,60318,60897,Stroop CI,16,31752,20,yes,1366,GREEN
14,76.19047619,yes,76.19047619,22,1544.142857,1544.142857,#ffffff,no,practice,v;b;n;m,legacy,I have read and understood the information shown above,legacy,legacy,red,0,con,uniform,0,0,1,NA,0,0,0,0,0,17,17,17,17,17,0,0,5,0,17,17,0,0,NA,0,17,0,17,NA,0,17,17,12/06/2016 21:45,The main experiment item,yes,v,IC_RSI2000.osexp,C:\Users\user\Downloads,no,mono,no,18,no,black,no,Ok,NA,yes,Female,768,legacy,17,17,C:/Users/User/Dropbox/Sussex/Consciousness and control/Exp 1 - stroop suggestion and PCE/Methods/Palfi_script/laptop_size/subject-7.csv,legacy,Jazzy James,3.1.2,0,n,n,space,NA,675,675,10483,NA,2,legacy,1024,2,48000,-16,experiment,0,even,NA,NA,9945,12916,8232,63804,63227,63767,64483,65475,NA,NA,4129,4129,61861,63263,NA,1665,NA,NA,64721,1665,65925,NA,14613,63223,63804,Stroop CI,16,32427,21,yes,1366,RED
5,77.27272727,yes,77.27272727,22,1533.863636,1533.863636,#ffffff,no,practice,v;b;n;m,legacy,I have read and understood the information shown above,legacy,legacy,blue,0,inc,uniform,1,1,1,NA,0,0,0,0,0,18,18,18,18,18,0,0,5,0,18,18,0,0,NA,0,18,0,18,NA,0,18,18,12/06/2016 21:45,The main experiment item,yes,b,IC_RSI2000.osexp,C:\Users\user\Downloads,no,mono,no,18,no,black,no,Ok,NA,yes,Female,768,legacy,18,18,C:/Users/User/Dropbox/Sussex/Consciousness and control/Exp 1 - stroop suggestion and PCE/Methods/Palfi_script/laptop_size/subject-7.csv,legacy,Jazzy James,3.1.2,0,b,b,space,NA,1318,1318,10483,NA,2,legacy,1024,2,48000,-16,experiment,0,even,NA,NA,9945,12916,8232,66680,66104,66644,68002,68994,NA,NA,4129,4129,68240,66140,NA,1665,NA,NA,64721,1665,69445,NA,14613,66100,66680,Stroop CI,17,33745,22,yes,1366,GREEN
9,78.26086957,yes,78.26086957,22,1501.26087,1501.26087,#ffffff,no,practice,v;b;n;m,legacy,I have read and understood the information shown above,legacy,legacy,green,0,inc,uniform,1,1,1,NA,0,0,0,0,0,19,19,19,19,19,0,0,5,0,19,19,0,0,NA,0,19,0,19,NA,0,19,19,12/06/2016 21:45,The main experiment item,yes,n,IC_RSI2000.osexp,C:\Users\user\Downloads,no,mono,no,18,no,black,no,Ok,NA,yes,Female,768,legacy,19,19,C:/Users/User/Dropbox/Sussex/Consciousness and control/Exp 1 - stroop suggestion and PCE/Methods/Palfi_script/laptop_size/subject-7.csv,legacy,Jazzy James,3.1.2,0,n,n,space,NA,784,784,10483,NA,2,legacy,1024,2,48000,-16,experiment,0,even,NA,NA,9945,12916,8232,70219,69641,70183,71007,72000,NA,NA,4129,4129,71245,69677,NA,1665,NA,NA,64721,1665,72450,NA,14613,69638,70219,Stroop CI,18,34529,23,yes,1366,YELLOW
22,79.16666667,yes,79.16666667,22,1463.458333,1463.458333,#ffffff,no,practice,v;b;n;m,legacy,I have read and understood the information shown above,legacy,legacy,#ffef36,0,con,uniform,1,1,1,NA,0,0,0,0,0,20,20,20,20,20,0,0,5,0,20,20,0,0,NA,0,20,0,20,NA,0,20,20,12/06/2016 21:45,The main experiment item,yes,m,IC_RSI2000.osexp,C:\Users\user\Downloads,no,mono,no,18,no,black,no,Ok,NA,yes,Female,768,legacy,20,20,C:/Users/User/Dropbox/Sussex/Consciousness and control/Exp 1 - stroop suggestion and PCE/Methods/Palfi_script/laptop_size/subject-7.csv,legacy,Jazzy James,3.1.2,0,m,m,space,NA,594,594,10483,NA,2,legacy,1024,2,48000,-16,experiment,0,even,NA,NA,9945,12916,8232,73184,72608,73147,73783,74775,NA,NA,4129,4129,74021,72643,NA,1665,NA,NA,64721,1665,75225,NA,14613,72604,73184,Stroop CI,19,35123,24,yes,1366,YELLOW
18,76,yes,76,22,1428.2,1428.2,#ffffff,no,practice,v;b;n;m,legacy,I have read and understood the information shown above,legacy,legacy,blue,0,con,uniform,0,0,1,NA,0,0,0,0,0,21,21,21,21,21,0,0,5,0,21,21,0,0,NA,0,21,0,21,NA,0,21,21,12/06/2016 21:45,The main experiment item,yes,b,IC_RSI2000.osexp,C:\Users\user\Downloads,no,mono,no,18,no,black,no,Ok,NA,yes,Female,768,legacy,21,21,C:/Users/User/Dropbox/Sussex/Consciousness and control/Exp 1 - stroop suggestion and PCE/Methods/Palfi_script/laptop_size/subject-7.csv,legacy,Jazzy James,3.1.2,0,v,v,space,NA,582,582,10483,NA,2,legacy,1024,2,48000,-16,experiment,0,even,NA,NA,9945,12916,8232,75965,75388,75928,76551,77543,NA,NA,4129,4129,74021,75424,NA,1665,NA,NA,76789,1665,77993,NA,14613,75384,75965,Stroop CI,19,35705,25,yes,1366,BLUE
6,76.92307692,yes,76.92307692,22,1398.038462,1398.038462,#ffffff,no,practice,v;b;n;m,legacy,I have read and understood the information shown above,legacy,legacy,blue,0,inc,uniform,1,1,1,NA,0,0,0,0,0,22,22,22,22,22,0,0,5,0,22,22,0,0,NA,0,22,0,22,NA,0,22,22,12/06/2016 21:45,The main experiment item,yes,b,IC_RSI2000.osexp,C:\Users\user\Downloads,no,mono,no,18,no,black,no,Ok,NA,yes,Female,768,legacy,22,22,C:/Users/User/Dropbox/Sussex/Consciousness and control/Exp 1 - stroop suggestion and PCE/Methods/Palfi_script/laptop_size/subject-7.csv,legacy,Jazzy James,3.1.2,0,b,b,space,NA,644,644,10483,NA,2,legacy,1024,2,48000,-16,experiment,0,even,NA,NA,9945,12916,8232,78731,78154,78694,79379,80371,NA,NA,4129,4129,79617,78190,NA,1665,NA,NA,76789,1665,80821,NA,14613,78150,78731,Stroop CI,20,36349,26,yes,1366,YELLOW
28,77.77777778,yes,77.77777778,22,1365.592593,1365.592593,#ffffff,no,practice,v;b;n;m,legacy,I have read and understood the information shown above,legacy,legacy,blue,0,neutral,uniform,1,1,1,NA,0,0,0,0,0,23,23,23,23,23,0,0,5,0,23,23,0,0,NA,0,23,0,23,NA,0,23,23,12/06/2016 21:45,The main experiment item,yes,b,IC_RSI2000.osexp,C:\Users\user\Downloads,no,mono,no,18,no,black,no,Ok,NA,yes,Female,768,legacy,23,23,C:/Users/User/Dropbox/Sussex/Consciousness and control/Exp 1 - stroop suggestion and PCE/Methods/Palfi_script/laptop_size/subject-7.csv,legacy,Jazzy James,3.1.2,0,b,b,space,NA,522,522,10483,NA,2,legacy,1024,2,48000,-16,experiment,0,even,NA,NA,9945,12916,8232,81599,81022,81563,82125,83118,NA,NA,4129,4129,82363,81058,NA,1665,NA,NA,76789,1665,83568,NA,14613,81018,81599,Stroop CI,21,36871,27,yes,1366,LOT
32,75,yes,75,22,1341.178571,1341.178571,#ffffff,no,practice,v;b;n;m,legacy,I have read and understood the information shown above,legacy,legacy,green,0,neutral,uniform,0,0,1,NA,0,0,0,0,0,24,24,24,24,24,0,0,5,0,24,24,0,0,NA,0,24,0,24,NA,0,24,24,12/06/2016 21:45,The main experiment item,yes,n,IC_RSI2000.osexp,C:\Users\user\Downloads,no,mono,no,18,no,black,no,Ok,NA,yes,Female,768,legacy,24,24,C:/Users/User/Dropbox/Sussex/Consciousness and control/Exp 1 - stroop suggestion and PCE/Methods/Palfi_script/laptop_size/subject-7.csv,legacy,Jazzy James,3.1.2,0,m,m,space,NA,682,682,10483,NA,2,legacy,1024,2,48000,-16,experiment,0,even,NA,NA,9945,12916,8232,84336,83759,84299,85023,86015,NA,NA,4129,4129,82363,83795,NA,1665,NA,NA,85261,1665,86465,NA,14613,83755,84336,Stroop CI,21,37553,28,yes,1366,SHIP
2,75.86206897,yes,75.86206897,22,1319.206897,1319.206897,#ffffff,no,practice,v;b;n;m,legacy,I have read and understood the information shown above,legacy,legacy,red,0,inc,uniform,1,1,1,NA,0,0,0,0,0,25,25,25,25,25,0,0,5,0,25,25,0,0,NA,0,25,0,25,NA,0,25,25,12/06/2016 21:45,The main experiment item,yes,v,IC_RSI2000.osexp,C:\Users\user\Downloads,no,mono,no,18,no,black,no,Ok,NA,yes,Female,768,legacy,25,25,C:/Users/User/Dropbox/Sussex/Consciousness and control/Exp 1 - stroop suggestion and PCE/Methods/Palfi_script/laptop_size/subject-7.csv,legacy,Jazzy James,3.1.2,0,v,v,space,NA,704,704,10483,NA,2,legacy,1024,2,48000,-16,experiment,0,even,NA,NA,9945,12916,8232,87215,86637,87177,87924,88917,NA,NA,4129,4129,88163,86673,NA,1665,NA,NA,85261,1665,89367,NA,14613,86634,87215,Stroop CI,22,38257,29,yes,1366,GREEN
25,76.66666667,yes,76.66666667,22,1294,1294,#ffffff,no,practice,v;b;n;m,legacy,I have read and understood the information shown above,legacy,legacy,red,0,neutral,uniform,1,1,1,NA,0,0,0,0,0,26,26,26,26,26,0,0,5,0,26,26,0,0,NA,0,26,0,26,NA,0,26,26,12/06/2016 21:45,The main experiment item,yes,v,IC_RSI2000.osexp,C:\Users\user\Downloads,no,mono,no,18,no,black,no,Ok,NA,yes,Female,768,legacy,26,26,C:/Users/User/Dropbox/Sussex/Consciousness and control/Exp 1 - stroop suggestion and PCE/Methods/Palfi_script/laptop_size/subject-7.csv,legacy,Jazzy James,3.1.2,0,v,v,space,NA,563,563,10483,NA,2,legacy,1024,2,48000,-16,experiment,0,even,NA,NA,9945,12916,8232,90123,89546,90086,90690,91682,NA,NA,4129,4129,90928,89582,NA,1665,NA,NA,85261,1665,92132,NA,14613,89543,90123,Stroop CI,23,38820,30,yes,1366,SHIP
27,77.41935484,yes,77.41935484,22,1269.225806,1269.225806,#ffffff,no,practice,v;b;n;m,legacy,I have read and understood the information shown above,legacy,legacy,red,0,neutral,uniform,1,1,1,NA,0,0,0,0,0,27,27,27,27,27,0,0,5,0,27,27,0,0,NA,0,27,0,27,NA,0,27,27,12/06/2016 21:45,The main experiment item,yes,v,IC_RSI2000.osexp,C:\Users\user\Downloads,no,mono,no,18,no,black,no,Ok,NA,yes,Female,768,legacy,27,27,C:/Users/User/Dropbox/Sussex/Consciousness and control/Exp 1 - stroop suggestion and PCE/Methods/Palfi_script/laptop_size/subject-7.csv,legacy,Jazzy James,3.1.2,0,v,v,space,NA,526,526,10483,NA,2,legacy,1024,2,48000,-16,experiment,0,even,NA,NA,9945,12916,8232,92889,92312,92852,93419,94411,NA,NA,4129,4129,93657,92348,NA,1665,NA,NA,85261,1665,94861,NA,14613,92309,92889,Stroop CI,24,39346,31,yes,1366,FLOWER
15,78.125,yes,78.125,22,1246.75,1246.75,#ffffff,no,practice,v;b;n;m,legacy,I have read and understood the information shown above,legacy,legacy,red,0,con,uniform,1,1,1,NA,0,0,0,0,0,28,28,28,28,28,0,0,5,0,28,28,0,0,NA,0,28,0,28,NA,0,28,28,12/06/2016 21:45,The main experiment item,yes,v,IC_RSI2000.osexp,C:\Users\user\Downloads,no,mono,no,18,no,black,no,Ok,NA,yes,Female,768,legacy,28,28,C:/Users/User/Dropbox/Sussex/Consciousness and control/Exp 1 - stroop suggestion and PCE/Methods/Palfi_script/laptop_size/subject-7.csv,legacy,Jazzy James,3.1.2,0,v,v,space,NA,550,550,10483,NA,2,legacy,1024,2,48000,-16,experiment,0,even,NA,NA,9945,12916,8232,95601,95023,95564,96156,97148,NA,NA,4129,4129,96394,95059,NA,1665,NA,NA,85261,1665,97598,NA,14613,95019,95601,Stroop CI,25,39896,32,yes,1366,RED
34,78.78787879,yes,78.78787879,22,1232.454545,1232.454545,#ffffff,no,practice,v;b;n;m,legacy,I have read and understood the information shown above,legacy,legacy,#ffef36,0,neutral,uniform,1,1,1,NA,0,0,0,0,0,29,29,29,29,29,0,0,5,0,29,29,0,0,NA,0,29,0,29,NA,0,29,29,12/06/2016 21:45,The main experiment item,yes,m,IC_RSI2000.osexp,C:\Users\user\Downloads,no,mono,no,18,no,black,no,Ok,NA,yes,Female,768,legacy,29,29,C:/Users/User/Dropbox/Sussex/Consciousness and control/Exp 1 - stroop suggestion and PCE/Methods/Palfi_script/laptop_size/subject-7.csv,legacy,Jazzy James,3.1.2,0,m,m,space,NA,775,775,10483,NA,2,legacy,1024,2,48000,-16,experiment,0,even,NA,NA,9945,12916,8232,98365,97788,98328,99144,100136,NA,NA,4129,4129,99382,97824,NA,1665,NA,NA,85261,1665,100586,NA,14613,97785,98365,Stroop CI,26,40671,33,yes,1366,LOT
7,79.41176471,yes,79.41176471,22,1215.117647,1215.117647,#ffffff,no,practice,v;b;n;m,legacy,I have read and understood the information shown above,legacy,legacy,green,0,inc,uniform,1,1,1,NA,0,0,0,0,0,30,30,30,30,30,0,0,5,0,30,30,0,0,NA,0,30,0,30,NA,0,30,30,12/06/2016 21:45,The main experiment item,yes,n,IC_RSI2000.osexp,C:\Users\user\Downloads,no,mono,no,18,no,black,no,Ok,NA,yes,Female,768,legacy,30,30,C:/Users/User/Dropbox/Sussex/Consciousness and control/Exp 1 - stroop suggestion and PCE/Methods/Palfi_script/laptop_size/subject-7.csv,legacy,Jazzy James,3.1.2,0,n,n,space,NA,643,643,10483,NA,2,legacy,1024,2,48000,-16,experiment,0,even,NA,NA,9945,12916,8232,101340,100763,101303,101987,102979,NA,NA,4129,4129,102225,100799,NA,1665,NA,NA,85261,1665,103429,NA,14613,100760,101340,Stroop CI,27,41314,34,yes,1366,RED
3,80,yes,80,22,1199.457143,1199.457143,#ffffff,no,practice,v;b;n;m,legacy,I have read and understood the information shown above,legacy,legacy,red,0,inc,uniform,1,1,1,NA,0,0,0,0,0,31,31,31,31,31,0,0,5,0,31,31,0,0,NA,0,31,0,31,NA,0,31,31,12/06/2016 21:45,The main experiment item,yes,v,IC_RSI2000.osexp,C:\Users\user\Downloads,no,mono,no,18,no,black,no,Ok,NA,yes,Female,768,legacy,31,31,C:/Users/User/Dropbox/Sussex/Consciousness and control/Exp 1 - stroop suggestion and PCE/Methods/Palfi_script/laptop_size/subject-7.csv,legacy,Jazzy James,3.1.2,0,v,v,space,NA,667,667,10483,NA,2,legacy,1024,2,48000,-16,experiment,0,even,NA,NA,9945,12916,8232,104175,103598,104138,104846,105838,NA,NA,4129,4129,105085,103634,NA,1665,NA,NA,85261,1665,106288,NA,14613,103595,104175,Stroop CI,28,41981,35,yes,1366,YELLOW
17,80.55555556,yes,80.55555556,22,1180.75,1180.75,#ffffff,no,practice,v;b;n;m,legacy,I have read and understood the information shown above,legacy,legacy,blue,0,con,uniform,1,1,1,NA,0,0,0,0,0,32,32,32,32,32,0,0,5,0,32,32,0,0,NA,0,32,0,32,NA,0,32,32,12/06/2016 21:45,The main experiment item,yes,b,IC_RSI2000.osexp,C:\Users\user\Downloads,no,mono,no,18,no,black,no,Ok,NA,yes,Female,768,legacy,32,32,C:/Users/User/Dropbox/Sussex/Consciousness and control/Exp 1 - stroop suggestion and PCE/Methods/Palfi_script/laptop_size/subject-7.csv,legacy,Jazzy James,3.1.2,0,b,b,space,NA,526,526,10483,NA,2,legacy,1024,2,48000,-16,experiment,0,even,NA,NA,9945,12916,8232,107022,106445,106985,107552,108544,NA,NA,4129,4129,107790,106481,NA,1665,NA,NA,85261,1665,108994,NA,14613,106441,107022,Stroop CI,29,42507,36,yes,1366,BLUE
29,81.08108108,yes,81.08108108,22,1159.513514,1159.513514,#ffffff,no,practice,v;b;n;m,legacy,I have read and understood the information shown above,legacy,legacy,blue,0,neutral,uniform,1,1,1,NA,0,0,0,0,0,33,33,33,33,33,0,0,5,0,33,33,0,0,NA,0,33,0,33,NA,0,33,33,12/06/2016 21:45,The main experiment item,yes,b,IC_RSI2000.osexp,C:\Users\user\Downloads,no,mono,no,18,no,black,no,Ok,NA,yes,Female,768,legacy,33,33,C:/Users/User/Dropbox/Sussex/Consciousness and control/Exp 1 - stroop suggestion and PCE/Methods/Palfi_script/laptop_size/subject-7.csv,legacy,Jazzy James,3.1.2,0,b,b,space,NA,395,395,10483,NA,2,legacy,1024,2,48000,-16,experiment,0,even,NA,NA,9945,12916,8232,109776,109201,109740,110175,111167,NA,NA,4129,4129,110413,109237,NA,1665,NA,NA,85261,1665,111618,NA,14613,109197,109776,Stroop CI,30,42902,37,yes,1366,KNIFE
35,78.94736842,yes,78.94736842,22,1149.526316,1149.526316,#ffffff,no,practice,v;b;n;m,legacy,I have read and understood the information shown above,legacy,legacy,#ffef36,0,neutral,uniform,0,0,1,NA,0,0,0,0,0,34,34,34,34,34,0,0,5,0,34,34,0,0,NA,0,34,0,34,NA,0,34,34,12/06/2016 21:45,The main experiment item,yes,m,IC_RSI2000.osexp,C:\Users\user\Downloads,no,mono,no,18,no,black,no,Ok,NA,yes,Female,768,legacy,34,34,C:/Users/User/Dropbox/Sussex/Consciousness and control/Exp 1 - stroop suggestion and PCE/Methods/Palfi_script/laptop_size/subject-7.csv,legacy,Jazzy James,3.1.2,0,n,n,space,NA,780,780,10483,NA,2,legacy,1024,2,48000,-16,experiment,0,even,NA,NA,9945,12916,8232,112384,111807,112347,113168,114161,NA,NA,4129,4129,110413,111843,NA,1665,NA,NA,113406,1665,114611,NA,14613,111803,112384,Stroop CI,30,43682,38,yes,1366,SHIP
11,79.48717949,yes,79.48717949,22,1130.179487,1130.179487,#ffffff,no,practice,v;b;n;m,legacy,I have read and understood the information shown above,legacy,legacy,#ffef36,0,inc,uniform,1,1,1,NA,0,0,0,0,0,35,35,35,35,35,0,0,5,0,35,35,0,0,NA,0,35,0,35,NA,0,35,35,12/06/2016 21:45,The main experiment item,yes,m,IC_RSI2000.osexp,C:\Users\user\Downloads,no,mono,no,18,no,black,no,Ok,NA,yes,Female,768,legacy,35,35,C:/Users/User/Dropbox/Sussex/Consciousness and control/Exp 1 - stroop suggestion and PCE/Methods/Palfi_script/laptop_size/subject-7.csv,legacy,Jazzy James,3.1.2,0,m,m,space,NA,395,395,10483,NA,2,legacy,1024,2,48000,-16,experiment,0,even,NA,NA,9945,12916,8232,115366,114789,115330,115766,116758,NA,NA,4129,4129,116004,114826,NA,1665,NA,NA,113406,1665,117209,NA,14613,114786,115366,Stroop CI,31,44077,39,yes,1366,BLUE
108,80.48780488,yes,80.48780488,22,4042.268293,4042.268293,#ffffff,no,I,v;b;n;m,legacy,I have read and understood the information shown above,legacy,legacy,#ffef36,0,con,uniform,1,1,1,NA,0,0,0,0,0,36,36,36,36,36,0,0,5,0,36,36,0,0,NA,0,36,0,36,NA,0,36,36,12/06/2016 21:45,The main experiment item,yes,m,IC_RSI2000.osexp,C:\Users\user\Downloads,no,mono,no,18,no,black,no,Ok,NA,yes,Female,768,legacy,0,35,C:/Users/User/Dropbox/Sussex/Consciousness and control/Exp 1 - stroop suggestion and PCE/Methods/Palfi_script/laptop_size/subject-7.csv,legacy,Jazzy James,3.1.2,0,m,m,space,NA,672,672,120984,NA,2,legacy,1024,2,48000,-16,experiment,0,even,NA,125114,9945,12916,8232,125800,125223,125763,126476,127468,117299,NA,4129,4129,126714,125259,NA,1665,NA,NA,113406,1665,127918,NA,14613,125220,125800,Stroop CI,33,165733,41,yes,1366,YELLOW
55,80.95238095,yes,80.95238095,22,3960.97619,3960.97619,#ffffff,no,I,v;b;n;m,legacy,I have read and understood the information shown above,legacy,legacy,green,0,inc,uniform,1,1,1,NA,0,0,0,0,0,37,37,37,37,37,0,0,5,0,37,37,0,0,NA,0,37,0,37,NA,0,37,37,12/06/2016 21:45,The main experiment item,yes,n,IC_RSI2000.osexp,C:\Users\user\Downloads,no,mono,no,18,no,black,no,Ok,NA,yes,Female,768,legacy,1,35,C:/Users/User/Dropbox/Sussex/Consciousness and control/Exp 1 - stroop suggestion and PCE/Methods/Palfi_script/laptop_size/subject-7.csv,legacy,Jazzy James,3.1.2,0,n,n,space,NA,628,628,120984,NA,2,legacy,1024,2,48000,-16,experiment,0,even,NA,125114,9945,12916,8232,128711,128134,128674,129344,130337,117299,NA,4129,4129,129582,128170,NA,1665,NA,NA,113406,1665,130788,NA,14613,128130,128711,Stroop CI,34,166361,42,yes,1366,RED
12,81.39534884,yes,81.39534884,22,3882.72093,3882.72093,#ffffff,no,I,v;b;n;m,legacy,I have read and understood the information shown above,legacy,legacy,red,0,inc,uniform,1,1,1,NA,0,0,0,0,0,38,38,38,38,38,0,0,5,0,38,38,0,0,NA,0,38,0,38,NA,0,38,38,12/06/2016 21:45,The main experiment item,yes,v,IC_RSI2000.osexp,C:\Users\user\Downloads,no,mono,no,18,no,black,no,Ok,NA,yes,Female,768,legacy,2,35,C:/Users/User/Dropbox/Sussex/Consciousness and control/Exp 1 - stroop suggestion and PCE/Methods/Palfi_script/laptop_size/subject-7.csv,legacy,Jazzy James,3.1.2,0,v,v,space,NA,596,596,120984,NA,2,legacy,1024,2,48000,-16,experiment,0,even,NA,125114,9945,12916,8232,131534,130957,131497,132134,133126,117299,NA,4129,4129,132372,130993,NA,1665,NA,NA,113406,1665,133576,NA,14613,130954,131534,Stroop CI,35,166957,43,yes,1366,GREEN
32,81.81818182,yes,81.81818182,22,3806.568182,3806.568182,#ffffff,no,I,v;b;n;m,legacy,I have read and understood the information shown above,legacy,legacy,blue,0,inc,uniform,1,1,1,NA,0,0,0,0,0,39,39,39,39,39,0,0,5,0,39,39,0,0,NA,0,39,0,39,NA,0,39,39,12/06/2016 21:45,The main experiment item,yes,b,IC_RSI2000.osexp,C:\Users\user\Downloads,no,mono,no,18,no,black,no,Ok,NA,yes,Female,768,legacy,3,35,C:/Users/User/Dropbox/Sussex/Consciousness and control/Exp 1 - stroop suggestion and PCE/Methods/Palfi_script/laptop_size/subject-7.csv,legacy,Jazzy James,3.1.2,0,b,b,space,NA,532,532,120984,NA,2,legacy,1024,2,48000,-16,experiment,0,even,NA,125114,9945,12916,8232,134323,133746,134286,134860,135853,117299,NA,4129,4129,135098,133782,NA,1665,NA,NA,113406,1665,136303,NA,14613,133743,134323,Stroop CI,36,167489,44,yes,1366,RED
24,80,yes,80,22,3734.822222,3734.822222,#ffffff,no,I,v;b;n;m,legacy,I have read and understood the information shown above,legacy,legacy,red,0,inc,uniform,0,0,1,NA,0,0,0,0,0,40,40,40,40,40,0,0,5,0,40,40,0,0,NA,0,40,0,40,NA,0,40,40,12/06/2016 21:45,The main experiment item,yes,v,IC_RSI2000.osexp,C:\Users\user\Downloads,no,mono,no,18,no,black,no,Ok,NA,yes,Female,768,legacy,4,35,C:/Users/User/Dropbox/Sussex/Consciousness and control/Exp 1 - stroop suggestion and PCE/Methods/Palfi_script/laptop_size/subject-7.csv,legacy,Jazzy James,3.1.2,0,b,b,space,NA,578,578,120984,NA,2,legacy,1024,2,48000,-16,experiment,0,even,NA,125114,9945,12916,8232,137048,136471,137011,137630,138623,117299,NA,4129,4129,135098,136507,NA,1665,NA,NA,137868,1665,139073,NA,14613,136468,137048,Stroop CI,36,168067,45,yes,1366,YELLOW
97,80.43478261,yes,80.43478261,22,3663.804348,3663.804348,#ffffff,no,I,v;b;n;m,legacy,I have read and understood the information shown above,legacy,legacy,red,0,con,uniform,1,1,1,NA,0,0,0,0,0,41,41,41,41,41,0,0,5,0,41,41,0,0,NA,0,41,0,41,NA,0,41,41,12/06/2016 21:45,The main experiment item,yes,v,IC_RSI2000.osexp,C:\Users\user\Downloads,no,mono,no,18,no,black,no,Ok,NA,yes,Female,768,legacy,5,35,C:/Users/User/Dropbox/Sussex/Consciousness and control/Exp 1 - stroop suggestion and PCE/Methods/Palfi_script/laptop_size/subject-7.csv,legacy,Jazzy James,3.1.2,0,v,v,space,NA,468,468,120984,NA,2,legacy,1024,2,48000,-16,experiment,0,even,NA,125114,9945,12916,8232,139836,139260,139800,140308,141301,117299,NA,4129,4129,140546,139296,NA,1665,NA,NA,137868,1665,141751,NA,14613,139256,139836,Stroop CI,37,168535,46,yes,1366,RED
25,80.85106383,yes,80.85106383,22,3601.148936,3601.148936,#ffffff,no,I,v;b;n;m,legacy,I have read and understood the information shown above,legacy,legacy,blue,0,inc,uniform,1,1,1,NA,0,0,0,0,0,42,42,42,42,42,0,0,5,0,42,42,0,0,NA,0,42,0,42,NA,0,42,42,12/06/2016 21:45,The main experiment item,yes,b,IC_RSI2000.osexp,C:\Users\user\Downloads,no,mono,no,18,no,black,no,Ok,NA,yes,Female,768,legacy,6,35,C:/Users/User/Dropbox/Sussex/Consciousness and control/Exp 1 - stroop suggestion and PCE/Methods/Palfi_script/laptop_size/subject-7.csv,legacy,Jazzy James,3.1.2,0,b,b,space,NA,719,719,120984,NA,2,legacy,1024,2,48000,-16,experiment,0,even,NA,125114,9945,12916,8232,142524,141947,142487,143248,144240,117299,NA,4129,4129,143486,141983,NA,1665,NA,NA,137868,1665,144690,NA,14613,141943,142524,Stroop CI,38,169254,47,yes,1366,RED
4,81.25,yes,81.25,22,3538.333333,3538.333333,#ffffff,no,I,v;b;n;m,legacy,I have read and understood the information shown above,legacy,legacy,red,0,inc,uniform,1,1,1,NA,0,0,0,0,0,43,43,43,43,43,0,0,5,0,43,43,0,0,NA,0,43,0,43,NA,0,43,43,12/06/2016 21:45,The main experiment item,yes,v,IC_RSI2000.osexp,C:\Users\user\Downloads,no,mono,no,18,no,black,no,Ok,NA,yes,Female,768,legacy,7,35,C:/Users/User/Dropbox/Sussex/Consciousness and control/Exp 1 - stroop suggestion and PCE/Methods/Palfi_script/laptop_size/subject-7.csv,legacy,Jazzy James,3.1.2,0,v,v,space,NA,586,586,120984,NA,2,legacy,1024,2,48000,-16,experiment,0,even,NA,125114,9945,12916,8232,145458,144881,145421,146049,147039,117299,NA,4129,4129,146286,144917,NA,1665,NA,NA,137868,1665,147489,NA,14613,144877,145458,Stroop CI,39,169840,48,yes,1366,BLUE
38,81.63265306,yes,81.63265306,22,3480.367347,3480.367347,#ffffff,no,I,v;b;n;m,legacy,I have read and understood the information shown above,legacy,legacy,blue,0,inc,uniform,1,1,1,NA,0,0,0,0,0,44,44,44,44,44,0,0,5,0,44,44,0,0,NA,0,44,0,44,NA,0,44,44,12/06/2016 21:45,The main experiment item,yes,b,IC_RSI2000.osexp,C:\Users\user\Downloads,no,mono,no,18,no,black,no,Ok,NA,yes,Female,768,legacy,8,35,C:/Users/User/Dropbox/Sussex/Consciousness and control/Exp 1 - stroop suggestion and PCE/Methods/Palfi_script/laptop_size/subject-7.csv,legacy,Jazzy James,3.1.2,0,b,b,space,NA,698,698,120984,NA,2,legacy,1024,2,48000,-16,experiment,0,even,NA,125114,9945,12916,8232,148255,147679,148218,148958,149948,117299,NA,4129,4129,149195,147715,NA,1665,NA,NA,137868,1665,150398,NA,14613,147675,148255,Stroop CI,40,170538,49,yes,1366,GREEN
51,82,yes,82,22,3426.74,3426.74,#ffffff,no,I,v;b;n;m,legacy,I have read and understood the information shown above,legacy,legacy,green,0,inc,uniform,1,1,1,NA,0,0,0,0,0,45,45,45,45,45,0,0,5,0,45,45,0,0,NA,0,45,0,45,NA,0,45,45,12/06/2016 21:45,The main experiment item,yes,n,IC_RSI2000.osexp,C:\Users\user\Downloads,no,mono,no,18,no,black,no,Ok,NA,yes,Female,768,legacy,9,35,C:/Users/User/Dropbox/Sussex/Consciousness and control/Exp 1 - stroop suggestion and PCE/Methods/Palfi_script/laptop_size/subject-7.csv,legacy,Jazzy James,3.1.2,0,n,n,space,NA,799,799,120984,NA,2,legacy,1024,2,48000,-16,experiment,0,even,NA,125114,9945,12916,8232,151185,150610,151149,151989,152981,117299,NA,4129,4129,152227,150646,NA,1665,NA,NA,137868,1665,153431,NA,14613,150606,151185,Stroop CI,41,171337,50,yes,1366,RED
34,82.35294118,yes,82.35294118,22,3371.176471,3371.176471,#ffffff,no,I,v;b;n;m,legacy,I have read and understood the information shown above,legacy,legacy,blue,0,inc,uniform,1,1,1,NA,0,0,0,0,0,46,46,46,46,46,0,0,5,0,46,46,0,0,NA,0,46,0,46,NA,0,46,46,12/06/2016 21:45,The main experiment item,yes,b,IC_RSI2000.osexp,C:\Users\user\Downloads,no,mono,no,18,no,black,no,Ok,NA,yes,Female,768,legacy,10,35,C:/Users/User/Dropbox/Sussex/Consciousness and control/Exp 1 - stroop suggestion and PCE/Methods/Palfi_script/laptop_size/subject-7.csv,legacy,Jazzy James,3.1.2,0,b,b,space,NA,593,593,120984,NA,2,legacy,1024,2,48000,-16,experiment,0,even,NA,125114,9945,12916,8232,154189,153611,154151,154786,155778,117299,NA,4129,4129,155024,153647,NA,1665,NA,NA,137868,1665,156228,NA,14613,153607,154188,Stroop CI,42,171930,51,yes,1366,GREEN
42,82.69230769,yes,82.69230769,22,3318.519231,3318.519231,#ffffff,no,I,v;b;n;m,legacy,I have read and understood the information shown above,legacy,legacy,blue,0,inc,uniform,1,1,1,NA,0,0,0,0,0,47,47,47,47,47,0,0,5,0,47,47,0,0,NA,0,47,0,47,NA,0,47,47,12/06/2016 21:45,The main experiment item,yes,b,IC_RSI2000.osexp,C:\Users\user\Downloads,no,mono,no,18,no,black,no,Ok,NA,yes,Female,768,legacy,11,35,C:/Users/User/Dropbox/Sussex/Consciousness and control/Exp 1 - stroop suggestion and PCE/Methods/Palfi_script/laptop_size/subject-7.csv,legacy,Jazzy James,3.1.2,0,b,b,space,NA,633,633,120984,NA,2,legacy,1024,2,48000,-16,experiment,0,even,NA,125114,9945,12916,8232,157009,156433,156973,157647,158639,117299,NA,4129,4129,157885,156469,NA,1665,NA,NA,137868,1665,159089,NA,14613,156429,157009,Stroop CI,43,172563,52,yes,1366,YELLOW
2,83.01886792,yes,83.01886792,22,3267.377358,3267.377358,#ffffff,no,I,v;b;n;m,legacy,I have read and understood the information shown above,legacy,legacy,red,0,inc,uniform,1,1,1,NA,0,0,0,0,0,48,48,48,48,48,0,0,5,0,48,48,0,0,NA,0,48,0,48,NA,0,48,48,12/06/2016 21:45,The main experiment item,yes,v,IC_RSI2000.osexp,C:\Users\user\Downloads,no,mono,no,18,no,black,no,Ok,NA,yes,Female,768,legacy,12,35,C:/Users/User/Dropbox/Sussex/Consciousness and control/Exp 1 - stroop suggestion and PCE/Methods/Palfi_script/laptop_size/subject-7.csv,legacy,Jazzy James,3.1.2,0,v,v,space,NA,608,608,120984,NA,2,legacy,1024,2,48000,-16,experiment,0,even,NA,125114,9945,12916,8232,159852,159276,159816,160464,161456,117299,NA,4129,4129,160702,159312,NA,1665,NA,NA,137868,1665,161906,NA,14613,159273,159852,Stroop CI,44,173171,53,yes,1366,BLUE
93,83.33333333,yes,83.33333333,22,3219.611111,3219.611111,#ffffff,no,I,v;b;n;m,legacy,I have read and understood the information shown above,legacy,legacy,#ffef36,0,inc,uniform,1,1,1,NA,0,0,0,0,0,49,49,49,49,49,0,0,5,0,49,49,0,0,NA,0,49,0,49,NA,0,49,49,12/06/2016 21:45,The main experiment item,yes,m,IC_RSI2000.osexp,C:\Users\user\Downloads,no,mono,no,18,no,black,no,Ok,NA,yes,Female,768,legacy,13,35,C:/Users/User/Dropbox/Sussex/Consciousness and control/Exp 1 - stroop suggestion and PCE/Methods/Palfi_script/laptop_size/subject-7.csv,legacy,Jazzy James,3.1.2,0,m,m,space,NA,688,688,120984,NA,2,legacy,1024,2,48000,-16,experiment,0,even,NA,125114,9945,12916,8232,162691,162114,162654,163383,164376,117299,NA,4129,4129,163622,162150,NA,1665,NA,NA,137868,1665,164826,NA,14613,162110,162691,Stroop CI,45,173859,54,yes,1366,GREEN
14,83.63636364,yes,83.63636364,22,3174.963636,3174.963636,#ffffff,no,I,v;b;n;m,legacy,I have read and understood the information shown above,legacy,legacy,red,0,inc,uniform,1,1,1,NA,0,0,0,0,0,50,50,50,50,50,0,0,5,0,50,50,0,0,NA,0,50,0,50,NA,0,50,50,12/06/2016 21:45,The main experiment item,yes,v,IC_RSI2000.osexp,C:\Users\user\Downloads,no,mono,no,18,no,black,no,Ok,NA,yes,Female,768,legacy,14,35,C:/Users/User/Dropbox/Sussex/Consciousness and control/Exp 1 - stroop suggestion and PCE/Methods/Palfi_script/laptop_size/subject-7.csv,legacy,Jazzy James,3.1.2,0,v,v,space,NA,764,764,120984,NA,2,legacy,1024,2,48000,-16,experiment,0,even,NA,125114,9945,12916,8232,165588,165012,165552,166357,167350,117299,NA,4129,4129,166595,165048,NA,1665,NA,NA,137868,1665,167800,NA,14613,165009,165588,Stroop CI,46,174623,55,yes,1366,GREEN
60,83.92857143,yes,83.92857143,22,3136.392857,3136.392857,#ffffff,no,I,v;b;n;m,legacy,I have read and understood the information shown above,legacy,legacy,green,0,inc,uniform,1,1,1,NA,0,0,0,0,0,51,51,51,51,51,0,0,5,0,51,51,0,0,NA,0,51,0,51,NA,0,51,51,12/06/2016 21:45,The main experiment item,yes,n,IC_RSI2000.osexp,C:\Users\user\Downloads,no,mono,no,18,no,black,no,Ok,NA,yes,Female,768,legacy,15,35,C:/Users/User/Dropbox/Sussex/Consciousness and control/Exp 1 - stroop suggestion and PCE/Methods/Palfi_script/laptop_size/subject-7.csv,legacy,Jazzy James,3.1.2,0,n,n,space,NA,1015,1015,120984,NA,2,legacy,1024,2,48000,-16,experiment,0,even,NA,125114,9945,12916,8232,168536,167959,168499,169556,170548,117299,NA,4129,4129,169794,167995,NA,1665,NA,NA,137868,1665,170998,NA,14613,167955,168536,Stroop CI,47,175638,56,yes,1366,BLUE
66,84.21052632,yes,84.21052632,22,3089.017544,3089.017544,#ffffff,no,I,v;b;n;m,legacy,I have read and understood the information shown above,legacy,legacy,green,0,inc,uniform,1,1,1,NA,0,0,0,0,0,52,52,52,52,52,0,0,5,0,52,52,0,0,NA,0,52,0,52,NA,0,52,52,12/06/2016 21:45,The main experiment item,yes,n,IC_RSI2000.osexp,C:\Users\user\Downloads,no,mono,no,18,no,black,no,Ok,NA,yes,Female,768,legacy,16,35,C:/Users/User/Dropbox/Sussex/Consciousness and control/Exp 1 - stroop suggestion and PCE/Methods/Palfi_script/laptop_size/subject-7.csv,legacy,Jazzy James,3.1.2,0,n,n,space,NA,436,436,120984,NA,2,legacy,1024,2,48000,-16,experiment,0,even,NA,125114,9945,12916,8232,171767,171190,171730,172208,173200,117299,NA,4129,4129,172446,171226,NA,1665,NA,NA,137868,1665,173650,NA,14613,171187,171767,Stroop CI,48,176074,57,yes,1366,YELLOW
115,84.48275862,yes,84.48275862,22,3043,3043,#ffffff,no,I,v;b;n;m,legacy,I have read and understood the information shown above,legacy,legacy,green,0,neutral,uniform,1,1,1,NA,0,0,0,0,0,53,53,53,53,53,0,0,5,0,53,53,0,0,NA,0,53,0,53,NA,0,53,53,12/06/2016 21:45,The main experiment item,yes,n,IC_RSI2000.osexp,C:\Users\user\Downloads,no,mono,no,18,no,black,no,Ok,NA,yes,Female,768,legacy,17,35,C:/Users/User/Dropbox/Sussex/Consciousness and control/Exp 1 - stroop suggestion and PCE/Methods/Palfi_script/laptop_size/subject-7.csv,legacy,Jazzy James,3.1.2,0,n,n,space,NA,420,420,120984,NA,2,legacy,1024,2,48000,-16,experiment,0,even,NA,125114,9945,12916,8232,174398,173820,174361,174823,175817,117299,NA,4129,4129,175061,173857,NA,1665,NA,NA,137868,1665,176267,NA,14613,173817,174398,Stroop CI,49,176494,58,yes,1366,LOT
46,83.05084746,yes,83.05084746,22,3000.898305,3000.898305,#ffffff,no,I,v;b;n;m,legacy,I have read and understood the information shown above,legacy,legacy,blue,0,inc,uniform,0,0,1,NA,0,0,0,0,0,54,54,54,54,54,0,0,5,0,54,54,0,0,NA,0,54,0,54,NA,0,54,54,12/06/2016 21:45,The main experiment item,yes,b,IC_RSI2000.osexp,C:\Users\user\Downloads,no,mono,no,18,no,black,no,Ok,NA,yes,Female,768,legacy,18,35,C:/Users/User/Dropbox/Sussex/Consciousness and control/Exp 1 - stroop suggestion and PCE/Methods/Palfi_script/laptop_size/subject-7.csv,legacy,Jazzy James,3.1.2,0,v,v,space,NA,559,559,120984,NA,2,legacy,1024,2,48000,-16,experiment,0,even,NA,125114,9945,12916,8232,177016,176438,176979,177580,178572,117299,NA,4129,4129,175061,176474,NA,1665,NA,NA,177818,1665,179022,NA,14613,176434,177016,Stroop CI,49,177053,59,yes,1366,YELLOW
105,83.33333333,yes,83.33333333,22,2960.583333,2960.583333,#ffffff,no,I,v;b;n;m,legacy,I have read and understood the information shown above,legacy,legacy,green,0,con,uniform,1,1,1,NA,0,0,0,0,0,55,55,55,55,55,0,0,5,0,55,55,0,0,NA,0,55,0,55,NA,0,55,55,12/06/2016 21:45,The main experiment item,yes,n,IC_RSI2000.osexp,C:\Users\user\Downloads,no,mono,no,18,no,black,no,Ok,NA,yes,Female,768,legacy,19,35,C:/Users/User/Dropbox/Sussex/Consciousness and control/Exp 1 - stroop suggestion and PCE/Methods/Palfi_script/laptop_size/subject-7.csv,legacy,Jazzy James,3.1.2,0,n,n,space,NA,582,582,120984,NA,2,legacy,1024,2,48000,-16,experiment,0,even,NA,125114,9945,12916,8232,179779,179200,179741,180365,181357,117299,NA,4129,4129,180603,179237,NA,1665,NA,NA,177818,1665,181807,NA,14613,179197,179778,Stroop CI,50,177635,60,yes,1366,GREEN
40,83.60655738,yes,83.60655738,22,2925.737705,2925.737705,#ffffff,no,I,v;b;n;m,legacy,I have read and understood the information shown above,legacy,legacy,blue,0,inc,uniform,1,1,1,NA,0,0,0,0,0,56,56,56,56,56,0,0,5,0,56,56,0,0,NA,0,56,0,56,NA,0,56,56,12/06/2016 21:45,The main experiment item,yes,b,IC_RSI2000.osexp,C:\Users\user\Downloads,no,mono,no,18,no,black,no,Ok,NA,yes,Female,768,legacy,20,35,C:/Users/User/Dropbox/Sussex/Consciousness and control/Exp 1 - stroop suggestion and PCE/Methods/Palfi_script/laptop_size/subject-7.csv,legacy,Jazzy James,3.1.2,0,b,b,space,NA,835,835,120984,NA,2,legacy,1024,2,48000,-16,experiment,0,even,NA,125114,9945,12916,8232,182559,181981,182522,183399,184391,117299,NA,4129,4129,183637,182018,NA,1665,NA,NA,177818,1665,184841,NA,14613,181977,182559,Stroop CI,51,178470,61,yes,1366,GREEN
11,83.87096774,yes,83.87096774,22,2887.725806,2887.725806,#ffffff,no,I,v;b;n;m,legacy,I have read and understood the information shown above,legacy,legacy,red,0,inc,uniform,1,1,1,NA,0,0,0,0,0,57,57,57,57,57,0,0,5,0,57,57,0,0,NA,0,57,0,57,NA,0,57,57,12/06/2016 21:45,The main experiment item,yes,v,IC_RSI2000.osexp,C:\Users\user\Downloads,no,mono,no,18,no,black,no,Ok,NA,yes,Female,768,legacy,21,35,C:/Users/User/Dropbox/Sussex/Consciousness and control/Exp 1 - stroop suggestion and PCE/Methods/Palfi_script/laptop_size/subject-7.csv,legacy,Jazzy James,3.1.2,0,v,v,space,NA,569,569,120984,NA,2,legacy,1024,2,48000,-16,experiment,0,even,NA,125114,9945,12916,8232,185611,185034,185574,186184,187177,117299,NA,4129,4129,186422,185070,NA,1665,NA,NA,177818,1665,187627,NA,14613,185031,185611,Stroop CI,52,179039,62,yes,1366,GREEN
28,84.12698413,yes,84.12698413,22,2849.333333,2849.333333,#ffffff,no,I,v;b;n;m,legacy,I have read and understood the information shown above,legacy,legacy,blue,0,inc,uniform,1,1,1,NA,0,0,0,0,0,58,58,58,58,58,0,0,5,0,58,58,0,0,NA,0,58,0,58,NA,0,58,58,12/06/2016 21:45,The main experiment item,yes,b,IC_RSI2000.osexp,C:\Users\user\Downloads,no,mono,no,18,no,black,no,Ok,NA,yes,Female,768,legacy,22,35,C:/Users/User/Dropbox/Sussex/Consciousness and control/Exp 1 - stroop suggestion and PCE/Methods/Palfi_script/laptop_size/subject-7.csv,legacy,Jazzy James,3.1.2,0,b,b,space,NA,469,469,120984,NA,2,legacy,1024,2,48000,-16,experiment,0,even,NA,125114,9945,12916,8232,188409,187833,188373,188883,189875,117299,NA,4129,4129,189121,187869,NA,1665,NA,NA,177818,1665,190325,NA,14613,187829,188409,Stroop CI,53,179508,63,yes,1366,RED
96,84.375,yes,84.375,22,2816.375,2816.375,#ffffff,no,I,v;b;n;m,legacy,I have read and understood the information shown above,legacy,legacy,#ffef36,0,inc,uniform,1,1,1,NA,0,0,0,0,0,59,59,59,59,59,0,0,5,0,59,59,0,0,NA,0,59,0,59,NA,0,59,59,12/06/2016 21:45,The main experiment item,yes,m,IC_RSI2000.osexp,C:\Users\user\Downloads,no,mono,no,18,no,black,no,Ok,NA,yes,Female,768,legacy,23,35,C:/Users/User/Dropbox/Sussex/Consciousness and control/Exp 1 - stroop suggestion and PCE/Methods/Palfi_script/laptop_size/subject-7.csv,legacy,Jazzy James,3.1.2,0,m,m,space,NA,740,740,120984,NA,2,legacy,1024,2,48000,-16,experiment,0,even,NA,125114,9945,12916,8232,191102,190524,191064,191847,192838,117299,NA,4129,4129,192085,190560,NA,1665,NA,NA,177818,1665,193288,NA,14613,190521,191101,Stroop CI,54,180248,64,yes,1366,GREEN
41,84.61538462,yes,84.61538462,22,2786.076923,2786.076923,#ffffff,no,I,v;b;n;m,legacy,I have read and understood the information shown above,legacy,legacy,blue,0,inc,uniform,1,1,1,NA,0,0,0,0,0,60,60,60,60,60,0,0,5,0,60,60,0,0,NA,0,60,0,60,NA,0,60,60,12/06/2016 21:45,The main experiment item,yes,b,IC_RSI2000.osexp,C:\Users\user\Downloads,no,mono,no,18,no,black,no,Ok,NA,yes,Female,768,legacy,24,35,C:/Users/User/Dropbox/Sussex/Consciousness and control/Exp 1 - stroop suggestion and PCE/Methods/Palfi_script/laptop_size/subject-7.csv,legacy,Jazzy James,3.1.2,0,b,b,space,NA,847,847,120984,NA,2,legacy,1024,2,48000,-16,experiment,0,even,NA,125114,9945,12916,8232,194037,193459,193999,194888,195880,117299,NA,4129,4129,195126,193495,NA,1665,NA,NA,177818,1665,196330,NA,14613,193456,194037,Stroop CI,55,181095,65,yes,1366,YELLOW
87,84.84848485,yes,84.84848485,22,2761.212121,2761.212121,#ffffff,no,I,v;b;n;m,legacy,I have read and understood the information shown above,legacy,legacy,#ffef36,0,inc,uniform,1,1,1,NA,0,0,0,0,0,61,61,61,61,61,0,0,5,0,61,61,0,0,NA,0,61,0,61,NA,0,61,61,12/06/2016 21:45,The main experiment item,yes,m,IC_RSI2000.osexp,C:\Users\user\Downloads,no,mono,no,18,no,black,no,Ok,NA,yes,Female,768,legacy,25,35,C:/Users/User/Dropbox/Sussex/Consciousness and control/Exp 1 - stroop suggestion and PCE/Methods/Palfi_script/laptop_size/subject-7.csv,legacy,Jazzy James,3.1.2,0,m,m,space,NA,1145,1145,120984,NA,2,legacy,1024,2,48000,-16,experiment,0,even,NA,125114,9945,12916,8232,197075,196498,197038,198225,199222,117299,NA,4129,4129,198463,196534,NA,1665,NA,NA,177818,1665,199673,NA,14613,196494,197075,Stroop CI,56,182240,66,yes,1366,BLUE
69,85.07462687,yes,85.07462687,22,2730.253731,2730.253731,#ffffff,no,I,v;b;n;m,legacy,I have read and understood the information shown above,legacy,legacy,green,0,inc,uniform,1,1,1,NA,0,0,0,0,0,62,62,62,62,62,0,0,5,0,62,62,0,0,NA,0,62,0,62,NA,0,62,62,12/06/2016 21:45,The main experiment item,yes,n,IC_RSI2000.osexp,C:\Users\user\Downloads,no,mono,no,18,no,black,no,Ok,NA,yes,Female,768,legacy,26,35,C:/Users/User/Dropbox/Sussex/Consciousness and control/Exp 1 - stroop suggestion and PCE/Methods/Palfi_script/laptop_size/subject-7.csv,legacy,Jazzy James,3.1.2,0,n,n,space,NA,687,687,120984,NA,2,legacy,1024,2,48000,-16,experiment,0,even,NA,125114,9945,12916,8232,200449,199872,200412,201140,202133,117299,NA,4129,4129,201378,199908,NA,1665,NA,NA,177818,1665,202583,NA,14613,199868,200449,Stroop CI,57,182927,67,yes,1366,YELLOW
91,85.29411765,yes,85.29411765,22,2699.147059,2699.147059,#ffffff,no,I,v;b;n;m,legacy,I have read and understood the information shown above,legacy,legacy,#ffef36,0,inc,uniform,1,1,1,NA,0,0,0,0,0,63,63,63,63,63,0,0,5,0,63,63,0,0,NA,0,63,0,63,NA,0,63,63,12/06/2016 21:45,The main experiment item,yes,m,IC_RSI2000.osexp,C:\Users\user\Downloads,no,mono,no,18,no,black,no,Ok,NA,yes,Female,768,legacy,27,35,C:/Users/User/Dropbox/Sussex/Consciousness and control/Exp 1 - stroop suggestion and PCE/Methods/Palfi_script/laptop_size/subject-7.csv,legacy,Jazzy James,3.1.2,0,m,m,space,NA,615,615,120984,NA,2,legacy,1024,2,48000,-16,experiment,0,even,NA,125114,9945,12916,8232,203338,202760,203301,203958,204950,117299,NA,4129,4129,204196,202796,NA,1665,NA,NA,177818,1665,205400,NA,14613,202757,203338,Stroop CI,58,183542,68,yes,1366,GREEN
114,85.50724638,yes,85.50724638,22,2672.521739,2672.521739,#ffffff,no,I,v;b;n;m,legacy,I have read and understood the information shown above,legacy,legacy,blue,0,neutral,uniform,1,1,1,NA,0,0,0,0,0,64,64,64,64,64,0,0,5,0,64,64,0,0,NA,0,64,0,64,NA,0,64,64,12/06/2016 21:45,The main experiment item,yes,b,IC_RSI2000.osexp,C:\Users\user\Downloads,no,mono,no,18,no,black,no,Ok,NA,yes,Female,768,legacy,28,35,C:/Users/User/Dropbox/Sussex/Consciousness and control/Exp 1 - stroop suggestion and PCE/Methods/Palfi_script/laptop_size/subject-7.csv,legacy,Jazzy James,3.1.2,0,b,b,space,NA,862,862,120984,NA,2,legacy,1024,2,48000,-16,experiment,0,even,NA,125114,9945,12916,8232,206171,205594,206134,207038,208030,117299,NA,4129,4129,207276,205630,NA,1665,NA,NA,177818,1665,208480,NA,14613,205591,206171,Stroop CI,59,184404,69,yes,1366,FLOWER
54,85.71428571,yes,85.71428571,22,2648.642857,2648.642857,#ffffff,no,I,v;b;n;m,legacy,I have read and understood the information shown above,legacy,legacy,green,0,inc,uniform,1,1,1,NA,0,0,0,0,0,65,65,65,65,65,0,0,5,0,65,65,0,0,NA,0,65,0,65,NA,0,65,65,12/06/2016 21:45,The main experiment item,yes,n,IC_RSI2000.osexp,C:\Users\user\Downloads,no,mono,no,18,no,black,no,Ok,NA,yes,Female,768,legacy,29,35,C:/Users/User/Dropbox/Sussex/Consciousness and control/Exp 1 - stroop suggestion and PCE/Methods/Palfi_script/laptop_size/subject-7.csv,legacy,Jazzy James,3.1.2,0,n,n,space,NA,1001,1001,120984,NA,2,legacy,1024,2,48000,-16,experiment,0,even,NA,125114,9945,12916,8232,209254,208677,209217,210260,211252,117299,NA,4129,4129,210498,208713,NA,1665,NA,NA,177818,1665,211702,NA,14613,208674,209254,Stroop CI,60,185405,70,yes,1366,RED
81,85.91549296,yes,85.91549296,22,2617.28169,2617.28169,#ffffff,no,I,v;b;n;m,legacy,I have read and understood the information shown above,legacy,legacy,#ffef36,0,inc,uniform,1,1,1,NA,0,0,0,0,0,66,66,66,66,66,0,0,5,0,66,66,0,0,NA,0,66,0,66,NA,0,66,66,12/06/2016 21:45,The main experiment item,yes,m,IC_RSI2000.osexp,C:\Users\user\Downloads,no,mono,no,18,no,black,no,Ok,NA,yes,Female,768,legacy,30,35,C:/Users/User/Dropbox/Sussex/Consciousness and control/Exp 1 - stroop suggestion and PCE/Methods/Palfi_script/laptop_size/subject-7.csv,legacy,Jazzy James,3.1.2,0,m,m,space,NA,422,422,120984,NA,2,legacy,1024,2,48000,-16,experiment,0,even,NA,125114,9945,12916,8232,212450,211871,212412,212876,213869,117299,NA,4129,4129,213114,211908,NA,1665,NA,NA,177818,1665,214319,NA,14613,211868,212450,Stroop CI,61,185827,71,yes,1366,BLUE
35,86.11111111,yes,86.11111111,22,2592.277778,2592.277778,#ffffff,no,I,v;b;n;m,legacy,I have read and understood the information shown above,legacy,legacy,blue,0,inc,uniform,1,1,1,NA,0,0,0,0,0,67,67,67,67,67,0,0,5,0,67,67,0,0,NA,0,67,0,67,NA,0,67,67,12/06/2016 21:45,The main experiment item,yes,b,IC_RSI2000.osexp,C:\Users\user\Downloads,no,mono,no,18,no,black,no,Ok,NA,yes,Female,768,legacy,31,35,C:/Users/User/Dropbox/Sussex/Consciousness and control/Exp 1 - stroop suggestion and PCE/Methods/Palfi_script/laptop_size/subject-7.csv,legacy,Jazzy James,3.1.2,0,b,b,space,NA,817,817,120984,NA,2,legacy,1024,2,48000,-16,experiment,0,even,NA,125114,9945,12916,8232,215077,214499,215039,215899,216891,117299,NA,4129,4129,216137,214535,NA,1665,NA,NA,177818,1665,217341,NA,14613,214495,215077,Stroop CI,62,186644,72,yes,1366,GREEN
39,86.30136986,yes,86.30136986,22,2562.60274,2562.60274,#ffffff,no,I,v;b;n;m,legacy,I have read and understood the information shown above,legacy,legacy,blue,0,inc,uniform,1,1,1,NA,0,0,0,0,0,68,68,68,68,68,0,0,5,0,68,68,0,0,NA,0,68,0,68,NA,0,68,68,12/06/2016 21:45,The main experiment item,yes,b,IC_RSI2000.osexp,C:\Users\user\Downloads,no,mono,no,18,no,black,no,Ok,NA,yes,Female,768,legacy,32,35,C:/Users/User/Dropbox/Sussex/Consciousness and control/Exp 1 - stroop suggestion and PCE/Methods/Palfi_script/laptop_size/subject-7.csv,legacy,Jazzy James,3.1.2,0,b,b,space,NA,426,426,120984,NA,2,legacy,1024,2,48000,-16,experiment,0,even,NA,125114,9945,12916,8232,218115,217538,218079,218545,219539,117299,NA,4129,4129,218784,217575,NA,1665,NA,NA,177818,1665,219989,NA,14613,217535,218115,Stroop CI,63,187070,73,yes,1366,GREEN
68,86.48648649,yes,86.48648649,22,2539.918919,2539.918919,#ffffff,no,I,v;b;n;m,legacy,I have read and understood the information shown above,legacy,legacy,green,0,inc,uniform,1,1,1,NA,0,0,0,0,0,69,69,69,69,69,0,0,5,0,69,69,0,0,NA,0,69,0,69,NA,0,69,69,12/06/2016 21:45,The main experiment item,yes,n,IC_RSI2000.osexp,C:\Users\user\Downloads,no,mono,no,18,no,black,no,Ok,NA,yes,Female,768,legacy,33,35,C:/Users/User/Dropbox/Sussex/Consciousness and control/Exp 1 - stroop suggestion and PCE/Methods/Palfi_script/laptop_size/subject-7.csv,legacy,Jazzy James,3.1.2,0,n,n,space,NA,884,884,120984,NA,2,legacy,1024,2,48000,-16,experiment,0,even,NA,125114,9945,12916,8232,220750,220174,220714,221639,222631,117299,NA,4129,4129,221877,220210,NA,1665,NA,NA,177818,1665,223081,NA,14613,220170,220750,Stroop CI,64,187954,74,yes,1366,YELLOW
78,86.66666667,yes,86.66666667,22,2513.346667,2513.346667,#ffffff,no,I,v;b;n;m,legacy,I have read and understood the information shown above,legacy,legacy,#ffef36,0,inc,uniform,1,1,1,NA,0,0,0,0,0,70,70,70,70,70,0,0,5,0,70,70,0,0,NA,0,70,0,70,NA,0,70,70,12/06/2016 21:45,The main experiment item,yes,m,IC_RSI2000.osexp,C:\Users\user\Downloads,no,mono,no,18,no,black,no,Ok,NA,yes,Female,768,legacy,34,35,C:/Users/User/Dropbox/Sussex/Consciousness and control/Exp 1 - stroop suggestion and PCE/Methods/Palfi_script/laptop_size/subject-7.csv,legacy,Jazzy James,3.1.2,0,m,m,space,NA,547,547,120984,NA,2,legacy,1024,2,48000,-16,experiment,0,even,NA,125114,9945,12916,8232,223860,223282,223823,224412,225405,117299,NA,4129,4129,224650,223318,NA,1665,NA,NA,177818,1665,225856,NA,14613,223278,223859,Stroop CI,65,188501,75,yes,1366,RED
63,86.84210526,yes,86.84210526,22,2488.855263,2488.855263,#ffffff,no,I,v;b;n;m,legacy,I have read and understood the information shown above,legacy,legacy,green,0,inc,uniform,1,1,1,NA,0,0,0,0,0,71,71,71,71,71,0,0,5,0,71,71,0,0,NA,0,71,0,71,NA,0,71,71,12/06/2016 21:45,The main experiment item,yes,n,IC_RSI2000.osexp,C:\Users\user\Downloads,no,mono,no,18,no,black,no,Ok,NA,yes,Female,768,legacy,35,35,C:/Users/User/Dropbox/Sussex/Consciousness and control/Exp 1 - stroop suggestion and PCE/Methods/Palfi_script/laptop_size/subject-7.csv,legacy,Jazzy James,3.1.2,0,n,n,space,NA,652,652,120984,NA,2,legacy,1024,2,48000,-16,experiment,0,even,NA,125114,9945,12916,8232,226642,226065,226605,227298,228291,117299,NA,4129,4129,227537,226101,NA,1665,NA,NA,177818,1665,228742,NA,14613,226061,226642,Stroop CI,66,189153,76,yes,1366,BLUE
52,87.01298701,yes,87.01298701,22,2461.948052,2461.948052,#ffffff,no,I,v;b;n;m,legacy,I have read and understood the information shown above,legacy,legacy,green,0,inc,uniform,1,1,1,NA,0,0,0,0,0,72,72,72,72,72,0,0,5,0,72,72,0,0,NA,0,72,0,72,NA,0,72,72,12/06/2016 21:45,The main experiment item,yes,n,IC_RSI2000.osexp,C:\Users\user\Downloads,no,mono,no,18,no,black,no,Ok,NA,yes,Female,768,legacy,36,35,C:/Users/User/Dropbox/Sussex/Consciousness and control/Exp 1 - stroop suggestion and PCE/Methods/Palfi_script/laptop_size/subject-7.csv,legacy,Jazzy James,3.1.2,0,n,n,space,NA,417,417,120984,NA,2,legacy,1024,2,48000,-16,experiment,0,even,NA,125114,9945,12916,8232,229498,228921,229461,229920,230913,117299,NA,4129,4129,230159,228957,NA,1665,NA,NA,177818,1665,231363,NA,14613,228917,229498,Stroop CI,67,189570,77,yes,1366,RED
17,85.8974359,yes,85.8974359,22,2441.192308,2441.192308,#ffffff,no,I,v;b;n;m,legacy,I have read and understood the information shown above,legacy,legacy,red,0,inc,uniform,0,0,1,NA,0,0,0,0,0,73,73,73,73,73,0,0,5,0,73,73,0,0,NA,0,73,0,73,NA,0,73,73,12/06/2016 21:45,The main experiment item,yes,v,IC_RSI2000.osexp,C:\Users\user\Downloads,no,mono,no,18,no,black,no,Ok,NA,yes,Female,768,legacy,37,35,C:/Users/User/Dropbox/Sussex/Consciousness and control/Exp 1 - stroop suggestion and PCE/Methods/Palfi_script/laptop_size/subject-7.csv,legacy,Jazzy James,3.1.2,0,b,b,space,NA,843,843,120984,NA,2,legacy,1024,2,48000,-16,experiment,0,even,NA,125114,9945,12916,8232,232126,231549,232089,232974,233966,117299,NA,4129,4129,230159,231585,NA,1665,NA,NA,233212,1665,234416,NA,14613,231546,232126,Stroop CI,67,190413,78,yes,1366,YELLOW
22,86.07594937,yes,86.07594937,22,2415.835443,2415.835443,#ffffff,no,I,v;b;n;m,legacy,I have read and understood the information shown above,legacy,legacy,red,0,inc,uniform,1,1,1,NA,0,0,0,0,0,74,74,74,74,74,0,0,5,0,74,74,0,0,NA,0,74,0,74,NA,0,74,74,12/06/2016 21:45,The main experiment item,yes,v,IC_RSI2000.osexp,C:\Users\user\Downloads,no,mono,no,18,no,black,no,Ok,NA,yes,Female,768,legacy,38,35,C:/Users/User/Dropbox/Sussex/Consciousness and control/Exp 1 - stroop suggestion and PCE/Methods/Palfi_script/laptop_size/subject-7.csv,legacy,Jazzy James,3.1.2,0,v,v,space,NA,438,438,120984,NA,2,legacy,1024,2,48000,-16,experiment,0,even,NA,125114,9945,12916,8232,235205,234628,235168,235648,236640,117299,NA,4129,4129,235886,234664,NA,1665,NA,NA,233212,1665,237090,NA,14613,234624,235205,Stroop CI,68,190851,79,yes,1366,YELLOW
98,86.25,yes,86.25,22,2391.0875,2391.0875,#ffffff,no,I,v;b;n;m,legacy,I have read and understood the information shown above,legacy,legacy,red,0,con,uniform,1,1,1,NA,0,0,0,0,0,75,75,75,75,75,0,0,5,0,75,75,0,0,NA,0,75,0,75,NA,0,75,75,12/06/2016 21:45,The main experiment item,yes,v,IC_RSI2000.osexp,C:\Users\user\Downloads,no,mono,no,18,no,black,no,Ok,NA,yes,Female,768,legacy,39,35,C:/Users/User/Dropbox/Sussex/Consciousness and control/Exp 1 - stroop suggestion and PCE/Methods/Palfi_script/laptop_size/subject-7.csv,legacy,Jazzy James,3.1.2,0,v,v,space,NA,436,436,120984,NA,2,legacy,1024,2,48000,-16,experiment,0,even,NA,125114,9945,12916,8232,237849,237273,237813,238290,239283,117299,NA,4129,4129,238528,237309,NA,1665,NA,NA,233212,1665,239733,NA,14613,237270,237849,Stroop CI,69,191287,80,yes,1366,RED
15,86.41975309,yes,86.41975309,22,2370.481481,2370.481481,#ffffff,no,I,v;b;n;m,legacy,I have read and understood the information shown above,legacy,legacy,red,0,inc,uniform,1,1,1,NA,0,0,0,0,0,76,76,76,76,76,0,0,5,0,76,76,0,0,NA,0,76,0,76,NA,0,76,76,12/06/2016 21:45,The main experiment item,yes,v,IC_RSI2000.osexp,C:\Users\user\Downloads,no,mono,no,18,no,black,no,Ok,NA,yes,Female,768,legacy,40,35,C:/Users/User/Dropbox/Sussex/Consciousness and control/Exp 1 - stroop suggestion and PCE/Methods/Palfi_script/laptop_size/subject-7.csv,legacy,Jazzy James,3.1.2,0,v,v,space,NA,722,722,120984,NA,2,legacy,1024,2,48000,-16,experiment,0,even,NA,125114,9945,12916,8232,240515,239937,240477,241242,242234,117299,NA,4129,4129,241480,239973,NA,1665,NA,NA,233212,1665,242684,NA,14613,239933,240514,Stroop CI,70,192009,81,yes,1366,GREEN
56,86.58536585,yes,86.58536585,22,2349.682927,2349.682927,#ffffff,no,I,v;b;n;m,legacy,I have read and understood the information shown above,legacy,legacy,green,0,inc,uniform,1,1,1,NA,0,0,0,0,0,77,77,77,77,77,0,0,5,0,77,77,0,0,NA,0,77,0,77,NA,0,77,77,12/06/2016 21:45,The main experiment item,yes,n,IC_RSI2000.osexp,C:\Users\user\Downloads,no,mono,no,18,no,black,no,Ok,NA,yes,Female,768,legacy,41,35,C:/Users/User/Dropbox/Sussex/Consciousness and control/Exp 1 - stroop suggestion and PCE/Methods/Palfi_script/laptop_size/subject-7.csv,legacy,Jazzy James,3.1.2,0,n,n,space,NA,665,665,120984,NA,2,legacy,1024,2,48000,-16,experiment,0,even,NA,125114,9945,12916,8232,243470,242893,243433,244140,245132,117299,NA,4129,4129,244378,242929,NA,1665,NA,NA,233212,1665,245582,NA,14613,242890,243470,Stroop CI,71,192674,82,yes,1366,RED
30,86.74698795,yes,86.74698795,22,2329.710843,2329.710843,#ffffff,no,I,v;b;n;m,legacy,I have read and understood the information shown above,legacy,legacy,blue,0,inc,uniform,1,1,1,NA,0,0,0,0,0,78,78,78,78,78,0,0,5,0,78,78,0,0,NA,0,78,0,78,NA,0,78,78,12/06/2016 21:45,The main experiment item,yes,b,IC_RSI2000.osexp,C:\Users\user\Downloads,no,mono,no,18,no,black,no,Ok,NA,yes,Female,768,legacy,42,35,C:/Users/User/Dropbox/Sussex/Consciousness and control/Exp 1 - stroop suggestion and PCE/Methods/Palfi_script/laptop_size/subject-7.csv,legacy,Jazzy James,3.1.2,0,b,b,space,NA,692,692,120984,NA,2,legacy,1024,2,48000,-16,experiment,0,even,NA,125114,9945,12916,8232,246333,245753,246295,247030,248023,117299,NA,4129,4129,247268,245789,NA,1665,NA,NA,233212,1665,248473,NA,14613,245750,246332,Stroop CI,72,193366,83,yes,1366,RED
116,85.71428571,yes,85.71428571,22,2309.357143,2309.357143,#ffffff,no,I,v;b;n;m,legacy,I have read and understood the information shown above,legacy,legacy,green,0,neutral,uniform,0,0,1,NA,0,0,0,0,0,79,79,79,79,79,0,0,5,0,79,79,0,0,NA,0,79,0,79,NA,0,79,79,12/06/2016 21:45,The main experiment item,yes,n,IC_RSI2000.osexp,C:\Users\user\Downloads,no,mono,no,18,no,black,no,Ok,NA,yes,Female,768,legacy,43,35,C:/Users/User/Dropbox/Sussex/Consciousness and control/Exp 1 - stroop suggestion and PCE/Methods/Palfi_script/laptop_size/subject-7.csv,legacy,Jazzy James,3.1.2,0,v,v,space,NA,620,620,120984,NA,2,legacy,1024,2,48000,-16,experiment,0,even,NA,125114,9945,12916,8232,249249,248672,249212,249874,250866,117299,NA,4129,4129,247268,248708,NA,1665,NA,NA,250112,1665,251316,NA,14613,248668,249249,Stroop CI,72,193986,84,yes,1366,SHIP
113,85.88235294,yes,85.88235294,22,2302.235294,2302.235294,#ffffff,no,I,v;b;n;m,legacy,I have read and understood the information shown above,legacy,legacy,blue,0,neutral,uniform,1,1,1,NA,0,0,0,0,0,80,80,80,80,80,0,0,5,0,80,80,0,0,NA,0,80,0,80,NA,0,80,80,12/06/2016 21:45,The main experiment item,yes,b,IC_RSI2000.osexp,C:\Users\user\Downloads,no,mono,no,18,no,black,no,Ok,NA,yes,Female,768,legacy,44,35,C:/Users/User/Dropbox/Sussex/Consciousness and control/Exp 1 - stroop suggestion and PCE/Methods/Palfi_script/laptop_size/subject-7.csv,legacy,Jazzy James,3.1.2,0,b,b,space,NA,1704,1704,120984,NA,2,legacy,1024,2,48000,-16,experiment,0,even,NA,125114,9945,12916,8232,252074,251496,252037,253783,254776,117299,NA,4129,4129,254021,251533,NA,1665,NA,NA,250112,1665,255226,NA,14613,251493,252074,Stroop CI,73,195690,85,yes,1366,KNIFE
119,86.04651163,yes,86.04651163,22,2282.5,2282.5,#ffffff,no,I,v;b;n;m,legacy,I have read and understood the information shown above,legacy,legacy,#ffef36,0,neutral,uniform,1,1,1,NA,0,0,0,0,0,81,81,81,81,81,0,0,5,0,81,81,0,0,NA,0,81,0,81,NA,0,81,81,12/06/2016 21:45,The main experiment item,yes,m,IC_RSI2000.osexp,C:\Users\user\Downloads,no,mono,no,18,no,black,no,Ok,NA,yes,Female,768,legacy,45,35,C:/Users/User/Dropbox/Sussex/Consciousness and control/Exp 1 - stroop suggestion and PCE/Methods/Palfi_script/laptop_size/subject-7.csv,legacy,Jazzy James,3.1.2,0,m,m,space,NA,605,605,120984,NA,2,legacy,1024,2,48000,-16,experiment,0,even,NA,125114,9945,12916,8232,255979,255403,255943,256589,257581,117299,NA,4129,4129,256826,255439,NA,1665,NA,NA,250112,1665,258031,NA,14613,255400,255979,Stroop CI,74,196295,86,yes,1366,SHIP
110,86.20689655,yes,86.20689655,22,2267.436782,2267.436782,#ffffff,no,I,v;b;n;m,legacy,I have read and understood the information shown above,legacy,legacy,red,0,neutral,uniform,1,1,1,NA,0,0,0,0,0,82,82,82,82,82,0,0,5,0,82,82,0,0,NA,0,82,0,82,NA,0,82,82,12/06/2016 21:45,The main experiment item,yes,v,IC_RSI2000.osexp,C:\Users\user\Downloads,no,mono,no,18,no,black,no,Ok,NA,yes,Female,768,legacy,46,35,C:/Users/User/Dropbox/Sussex/Consciousness and control/Exp 1 - stroop suggestion and PCE/Methods/Palfi_script/laptop_size/subject-7.csv,legacy,Jazzy James,3.1.2,0,v,v,space,NA,972,972,120984,NA,2,legacy,1024,2,48000,-16,experiment,0,even,NA,125114,9945,12916,8232,258790,258211,258752,259767,260759,117299,NA,4129,4129,260005,258248,NA,1665,NA,NA,250112,1665,261209,NA,14613,258208,258789,Stroop CI,75,197267,87,yes,1366,KNIFE
45,86.36363636,yes,86.36363636,22,2248.772727,2248.772727,#ffffff,no,I,v;b;n;m,legacy,I have read and understood the information shown above,legacy,legacy,blue,0,inc,uniform,1,1,1,NA,0,0,0,0,0,83,83,83,83,83,0,0,5,0,83,83,0,0,NA,0,83,0,83,NA,0,83,83,12/06/2016 21:45,The main experiment item,yes,b,IC_RSI2000.osexp,C:\Users\user\Downloads,no,mono,no,18,no,black,no,Ok,NA,yes,Female,768,legacy,47,35,C:/Users/User/Dropbox/Sussex/Consciousness and control/Exp 1 - stroop suggestion and PCE/Methods/Palfi_script/laptop_size/subject-7.csv,legacy,Jazzy James,3.1.2,0,b,b,space,NA,625,625,120984,NA,2,legacy,1024,2,48000,-16,experiment,0,even,NA,125114,9945,12916,8232,261966,261389,261929,262596,263587,117299,NA,4129,4129,262833,261425,NA,1665,NA,NA,250112,1665,264037,NA,14613,261386,261966,Stroop CI,76,197892,88,yes,1366,YELLOW
112,86.51685393,yes,86.51685393,22,2229.359551,2229.359551,#ffffff,no,I,v;b;n;m,legacy,I have read and understood the information shown above,legacy,legacy,blue,0,neutral,uniform,1,1,1,NA,0,0,0,0,0,84,84,84,84,84,0,0,5,0,84,84,0,0,NA,0,84,0,84,NA,0,84,84,12/06/2016 21:45,The main experiment item,yes,b,IC_RSI2000.osexp,C:\Users\user\Downloads,no,mono,no,18,no,black,no,Ok,NA,yes,Female,768,legacy,48,35,C:/Users/User/Dropbox/Sussex/Consciousness and control/Exp 1 - stroop suggestion and PCE/Methods/Palfi_script/laptop_size/subject-7.csv,legacy,Jazzy James,3.1.2,0,b,b,space,NA,521,521,120984,NA,2,legacy,1024,2,48000,-16,experiment,0,even,NA,125114,9945,12916,8232,264801,264222,264763,265327,266319,117299,NA,4129,4129,265565,264259,NA,1665,NA,NA,250112,1665,266769,NA,14613,264219,264801,Stroop CI,77,198413,89,yes,1366,LOT
71,86.66666667,yes,86.66666667,22,2210.9,2210.9,#ffffff,no,I,v;b;n;m,legacy,I have read and understood the information shown above,legacy,legacy,green,0,inc,uniform,1,1,1,NA,0,0,0,0,0,85,85,85,85,85,0,0,5,0,85,85,0,0,NA,0,85,0,85,NA,0,85,85,12/06/2016 21:45,The main experiment item,yes,n,IC_RSI2000.osexp,C:\Users\user\Downloads,no,mono,no,18,no,black,no,Ok,NA,yes,Female,768,legacy,49,35,C:/Users/User/Dropbox/Sussex/Consciousness and control/Exp 1 - stroop suggestion and PCE/Methods/Palfi_script/laptop_size/subject-7.csv,legacy,Jazzy James,3.1.2,0,n,n,space,NA,568,568,120984,NA,2,legacy,1024,2,48000,-16,experiment,0,even,NA,125114,9945,12916,8232,267534,266957,267497,268107,269099,117299,NA,4129,4129,268345,266993,NA,1665,NA,NA,250112,1665,269549,NA,14613,266953,267534,Stroop CI,78,198981,90,yes,1366,YELLOW
109,86.81318681,yes,86.81318681,22,2194.208791,2194.208791,#ffffff,no,I,v;b;n;m,legacy,I have read and understood the information shown above,legacy,legacy,red,0,neutral,uniform,1,1,1,NA,0,0,0,0,0,86,86,86,86,86,0,0,5,0,86,86,0,0,NA,0,86,0,86,NA,0,86,86,12/06/2016 21:45,The main experiment item,yes,v,IC_RSI2000.osexp,C:\Users\user\Downloads,no,mono,no,18,no,black,no,Ok,NA,yes,Female,768,legacy,50,35,C:/Users/User/Dropbox/Sussex/Consciousness and control/Exp 1 - stroop suggestion and PCE/Methods/Palfi_script/laptop_size/subject-7.csv,legacy,Jazzy James,3.1.2,0,v,v,space,NA,692,692,120984,NA,2,legacy,1024,2,48000,-16,experiment,0,even,NA,125114,9945,12916,8232,270320,269743,270283,271018,272010,117299,NA,4129,4129,271256,269779,NA,1665,NA,NA,250112,1665,272460,NA,14613,269739,270319,Stroop CI,79,199673,91,yes,1366,SHIP
120,86.95652174,yes,86.95652174,22,2180.097826,2180.097826,#ffffff,no,I,v;b;n;m,legacy,I have read and understood the information shown above,legacy,legacy,#ffef36,0,neutral,uniform,1,1,1,NA,0,0,0,0,0,87,87,87,87,87,0,0,5,0,87,87,0,0,NA,0,87,0,87,NA,0,87,87,12/06/2016 21:45,The main experiment item,yes,m,IC_RSI2000.osexp,C:\Users\user\Downloads,no,mono,no,18,no,black,no,Ok,NA,yes,Female,768,legacy,51,35,C:/Users/User/Dropbox/Sussex/Consciousness and control/Exp 1 - stroop suggestion and PCE/Methods/Palfi_script/laptop_size/subject-7.csv,legacy,Jazzy James,3.1.2,0,m,m,space,NA,896,896,120984,NA,2,legacy,1024,2,48000,-16,experiment,0,even,NA,125114,9945,12916,8232,273226,272649,273189,274128,275120,117299,NA,4129,4129,274366,272685,NA,1665,NA,NA,250112,1665,275570,NA,14613,272645,273226,Stroop CI,80,200569,92,yes,1366,KNIFE
37,87.09677419,yes,87.09677419,22,2163.268817,2163.268817,#ffffff,no,I,v;b;n;m,legacy,I have read and understood the information shown above,legacy,legacy,blue,0,inc,uniform,1,1,1,NA,0,0,0,0,0,88,88,88,88,88,0,0,5,0,88,88,0,0,NA,0,88,0,88,NA,0,88,88,12/06/2016 21:45,The main experiment item,yes,b,IC_RSI2000.osexp,C:\Users\user\Downloads,no,mono,no,18,no,black,no,Ok,NA,yes,Female,768,legacy,52,35,C:/Users/User/Dropbox/Sussex/Consciousness and control/Exp 1 - stroop suggestion and PCE/Methods/Palfi_script/laptop_size/subject-7.csv,legacy,Jazzy James,3.1.2,0,b,b,space,NA,615,615,120984,NA,2,legacy,1024,2,48000,-16,experiment,0,even,NA,125114,9945,12916,8232,276336,275759,276299,276956,277948,117299,NA,4129,4129,277194,275795,NA,1665,NA,NA,250112,1665,278398,NA,14613,275756,276336,Stroop CI,81,201184,93,yes,1366,GREEN
6,87.23404255,yes,87.23404255,22,2146.095745,2146.095745,#ffffff,no,I,v;b;n;m,legacy,I have read and understood the information shown above,legacy,legacy,red,0,inc,uniform,1,1,1,NA,0,0,0,0,0,89,89,89,89,89,0,0,5,0,89,89,0,0,NA,0,89,0,89,NA,0,89,89,12/06/2016 21:45,The main experiment item,yes,v,IC_RSI2000.osexp,C:\Users\user\Downloads,no,mono,no,18,no,black,no,Ok,NA,yes,Female,768,legacy,53,35,C:/Users/User/Dropbox/Sussex/Consciousness and control/Exp 1 - stroop suggestion and PCE/Methods/Palfi_script/laptop_size/subject-7.csv,legacy,Jazzy James,3.1.2,0,v,v,space,NA,549,549,120984,NA,2,legacy,1024,2,48000,-16,experiment,0,even,NA,125114,9945,12916,8232,279157,278580,279120,279711,280703,117299,NA,4129,4129,279949,278616,NA,1665,NA,NA,250112,1665,281153,NA,14613,278576,279157,Stroop CI,82,201733,94,yes,1366,BLUE
31,87.36842105,yes,87.36842105,22,2130.652632,2130.652632,#ffffff,no,I,v;b;n;m,legacy,I have read and understood the information shown above,legacy,legacy,blue,0,inc,uniform,1,1,1,NA,0,0,0,0,0,90,90,90,90,90,0,0,5,0,90,90,0,0,NA,0,90,0,90,NA,0,90,90,12/06/2016 21:45,The main experiment item,yes,b,IC_RSI2000.osexp,C:\Users\user\Downloads,no,mono,no,18,no,black,no,Ok,NA,yes,Female,768,legacy,54,35,C:/Users/User/Dropbox/Sussex/Consciousness and control/Exp 1 - stroop suggestion and PCE/Methods/Palfi_script/laptop_size/subject-7.csv,legacy,Jazzy James,3.1.2,0,b,b,space,NA,679,679,120984,NA,2,legacy,1024,2,48000,-16,experiment,0,even,NA,125114,9945,12916,8232,281915,281340,281879,282600,283591,117299,NA,4129,4129,282838,281376,NA,1665,NA,NA,250112,1665,284042,NA,14613,281336,281915,Stroop CI,83,202412,95,yes,1366,RED
47,87.5,yes,87.5,22,2113.208333,2113.208333,#ffffff,no,I,v;b;n;m,legacy,I have read and understood the information shown above,legacy,legacy,blue,0,inc,uniform,1,1,1,NA,0,0,0,0,0,91,91,91,91,91,0,0,5,0,91,91,0,0,NA,0,91,0,91,NA,0,91,91,12/06/2016 21:45,The main experiment item,yes,b,IC_RSI2000.osexp,C:\Users\user\Downloads,no,mono,no,18,no,black,no,Ok,NA,yes,Female,768,legacy,55,35,C:/Users/User/Dropbox/Sussex/Consciousness and control/Exp 1 - stroop suggestion and PCE/Methods/Palfi_script/laptop_size/subject-7.csv,legacy,Jazzy James,3.1.2,0,b,b,space,NA,456,456,120984,NA,2,legacy,1024,2,48000,-16,experiment,0,even,NA,125114,9945,12916,8232,284833,284255,284796,285294,286285,117299,NA,4129,4129,285532,284292,NA,1665,NA,NA,250112,1665,286735,NA,14613,284250,284833,Stroop CI,84,202868,96,yes,1366,YELLOW
5,87.62886598,yes,87.62886598,22,2097.443299,2097.443299,#ffffff,no,I,v;b;n;m,legacy,I have read and understood the information shown above,legacy,legacy,red,0,inc,uniform,1,1,1,NA,0,0,0,0,0,92,92,92,92,92,0,0,5,0,92,92,0,0,NA,0,92,0,92,NA,0,92,92,12/06/2016 21:45,The main experiment item,yes,v,IC_RSI2000.osexp,C:\Users\user\Downloads,no,mono,no,18,no,black,no,Ok,NA,yes,Female,768,legacy,56,35,C:/Users/User/Dropbox/Sussex/Consciousness and control/Exp 1 - stroop suggestion and PCE/Methods/Palfi_script/laptop_size/subject-7.csv,legacy,Jazzy James,3.1.2,0,v,v,space,NA,584,584,120984,NA,2,legacy,1024,2,48000,-16,experiment,0,even,NA,125114,9945,12916,8232,287493,286915,287456,288082,289076,117299,NA,4129,4129,288322,286951,NA,1665,NA,NA,250112,1665,289526,NA,14613,286911,287493,Stroop CI,85,203452,97,yes,1366,BLUE
65,87.75510204,yes,87.75510204,22,2082.173469,2082.173469,#ffffff,no,I,v;b;n;m,legacy,I have read and understood the information shown above,legacy,legacy,green,0,inc,uniform,1,1,1,NA,0,0,0,0,0,93,93,93,93,93,0,0,5,0,93,93,0,0,NA,0,93,0,93,NA,0,93,93,12/06/2016 21:45,The main experiment item,yes,n,IC_RSI2000.osexp,C:\Users\user\Downloads,no,mono,no,18,no,black,no,Ok,NA,yes,Female,768,legacy,57,35,C:/Users/User/Dropbox/Sussex/Consciousness and control/Exp 1 - stroop suggestion and PCE/Methods/Palfi_script/laptop_size/subject-7.csv,legacy,Jazzy James,3.1.2,0,n,n,space,NA,601,601,120984,NA,2,legacy,1024,2,48000,-16,experiment,0,even,NA,125114,9945,12916,8232,290282,289707,290246,290888,291881,117299,NA,4129,4129,291127,289743,NA,1665,NA,NA,250112,1665,292331,NA,14613,289704,290282,Stroop CI,86,204053,98,yes,1366,YELLOW
23,87.87878788,yes,87.87878788,22,2068.222222,2068.222222,#ffffff,no,I,v;b;n;m,legacy,I have read and understood the information shown above,legacy,legacy,red,0,inc,uniform,1,1,1,NA,0,0,0,0,0,94,94,94,94,94,0,0,5,0,94,94,0,0,NA,0,94,0,94,NA,0,94,94,12/06/2016 21:45,The main experiment item,yes,v,IC_RSI2000.osexp,C:\Users\user\Downloads,no,mono,no,18,no,black,no,Ok,NA,yes,Female,768,legacy,58,35,C:/Users/User/Dropbox/Sussex/Consciousness and control/Exp 1 - stroop suggestion and PCE/Methods/Palfi_script/laptop_size/subject-7.csv,legacy,Jazzy James,3.1.2,0,v,v,space,NA,701,701,120984,NA,2,legacy,1024,2,48000,-16,experiment,0,even,NA,125114,9945,12916,8232,293079,292502,293042,293787,294779,117299,NA,4129,4129,294025,292538,NA,1665,NA,NA,250112,1665,295230,NA,14613,292499,293079,Stroop CI,87,204754,99,yes,1366,YELLOW
70,87,yes,87,22,2053.53,2053.53,#ffffff,no,I,v;b;n;m,legacy,I have read and understood the information shown above,legacy,legacy,green,0,inc,uniform,0,0,1,NA,0,0,0,0,0,95,95,95,95,95,0,0,5,0,95,95,0,0,NA,0,95,0,95,NA,0,95,95,12/06/2016 21:45,The main experiment item,yes,n,IC_RSI2000.osexp,C:\Users\user\Downloads,no,mono,no,18,no,black,no,Ok,NA,yes,Female,768,legacy,59,35,C:/Users/User/Dropbox/Sussex/Consciousness and control/Exp 1 - stroop suggestion and PCE/Methods/Palfi_script/laptop_size/subject-7.csv,legacy,Jazzy James,3.1.2,0,b,b,space,NA,599,599,120984,NA,2,legacy,1024,2,48000,-16,experiment,0,even,NA,125114,9945,12916,8232,295997,295419,295959,296602,297593,117299,NA,4129,4129,294025,295455,NA,1665,NA,NA,296839,1665,298043,NA,14613,295416,295997,Stroop CI,87,205353,100,yes,1366,YELLOW
67,87.12871287,yes,87.12871287,22,2037.39604,2037.39604,#ffffff,no,I,v;b;n;m,legacy,I have read and understood the information shown above,legacy,legacy,green,0,inc,uniform,1,1,1,NA,0,0,0,0,0,96,96,96,96,96,0,0,5,0,96,96,0,0,NA,0,96,0,96,NA,0,96,96,12/06/2016 21:45,The main experiment item,yes,n,IC_RSI2000.osexp,C:\Users\user\Downloads,no,mono,no,18,no,black,no,Ok,NA,yes,Female,768,legacy,60,35,C:/Users/User/Dropbox/Sussex/Consciousness and control/Exp 1 - stroop suggestion and PCE/Methods/Palfi_script/laptop_size/subject-7.csv,legacy,Jazzy James,3.1.2,0,n,n,space,NA,424,424,120984,NA,2,legacy,1024,2,48000,-16,experiment,0,even,NA,125114,9945,12916,8232,298782,298203,298744,299212,300204,117299,NA,4129,4129,299450,298240,NA,1665,NA,NA,296839,1665,300654,NA,14613,298199,298782,Stroop CI,88,205777,101,yes,1366,YELLOW
7,86.2745098,yes,86.2745098,22,2037.029412,2037.029412,#ffffff,no,I,v;b;n;m,legacy,I have read and understood the information shown above,legacy,legacy,red,0,inc,uniform,0,0,1,NA,0,0,0,0,0,97,97,97,97,97,0,0,5,0,97,97,0,0,NA,0,97,0,97,NA,0,97,97,12/06/2016 21:45,The main experiment item,yes,v,IC_RSI2000.osexp,C:\Users\user\Downloads,no,mono,no,18,no,black,no,Ok,NA,yes,Female,768,legacy,61,35,C:/Users/User/Dropbox/Sussex/Consciousness and control/Exp 1 - stroop suggestion and PCE/Methods/Palfi_script/laptop_size/subject-7.csv,legacy,Jazzy James,3.1.2,0,None,None,space,NA,2000,2000,120984,NA,2,legacy,1024,2,48000,-16,experiment,0,even,NA,125114,9945,12916,8232,301417,300839,301380,303422,304414,117299,NA,4129,4129,299450,300876,NA,1665,NA,NA,303660,1665,304864,NA,14613,300836,301417,Stroop CI,88,207777,102,yes,1366,BLUE
57,86.40776699,yes,86.40776699,22,2027.466019,2027.466019,#ffffff,no,I,v;b;n;m,legacy,I have read and understood the information shown above,legacy,legacy,green,0,inc,uniform,1,1,1,NA,0,0,0,0,0,98,98,98,98,98,0,0,5,0,98,98,0,0,NA,0,98,0,98,NA,0,98,98,12/06/2016 21:45,The main experiment item,yes,n,IC_RSI2000.osexp,C:\Users\user\Downloads,no,mono,no,18,no,black,no,Ok,NA,yes,Female,768,legacy,62,35,C:/Users/User/Dropbox/Sussex/Consciousness and control/Exp 1 - stroop suggestion and PCE/Methods/Palfi_script/laptop_size/subject-7.csv,legacy,Jazzy James,3.1.2,0,n,n,space,NA,1052,1052,120984,NA,2,legacy,1024,2,48000,-16,experiment,0,even,NA,125114,9945,12916,8232,305631,305056,305595,306688,307680,117299,NA,4129,4129,306926,305092,NA,1665,NA,NA,303660,1665,308130,NA,14613,305053,305631,Stroop CI,89,208829,103,yes,1366,BLUE
118,86.53846154,yes,86.53846154,22,2014.403846,2014.403846,#ffffff,no,I,v;b;n;m,legacy,I have read and understood the information shown above,legacy,legacy,#ffef36,0,neutral,uniform,1,1,1,NA,0,0,0,0,0,99,99,99,99,99,0,0,5,0,99,99,0,0,NA,0,99,0,99,NA,0,99,99,12/06/2016 21:45,The main experiment item,yes,m,IC_RSI2000.osexp,C:\Users\user\Downloads,no,mono,no,18,no,black,no,Ok,NA,yes,Female,768,legacy,63,35,C:/Users/User/Dropbox/Sussex/Consciousness and control/Exp 1 - stroop suggestion and PCE/Methods/Palfi_script/laptop_size/subject-7.csv,legacy,Jazzy James,3.1.2,0,m,m,space,NA,669,669,120984,NA,2,legacy,1024,2,48000,-16,experiment,0,even,NA,125114,9945,12916,8232,308882,308307,308846,309556,310549,117299,NA,4129,4129,309794,308343,NA,1665,NA,NA,303660,1665,310999,NA,14613,308304,308882,Stroop CI,90,209498,104,yes,1366,LOT
9,86.66666667,yes,86.66666667,22,2001.142857,2001.142857,#ffffff,no,I,v;b;n;m,legacy,I have read and understood the information shown above,legacy,legacy,red,0,inc,uniform,1,1,1,NA,0,0,0,0,0,100,100,100,100,100,0,0,5,0,100,100,0,0,NA,0,100,0,100,NA,0,100,100,12/06/2016 21:45,The main experiment item,yes,v,IC_RSI2000.osexp,C:\Users\user\Downloads,no,mono,no,18,no,black,no,Ok,NA,yes,Female,768,legacy,64,35,C:/Users/User/Dropbox/Sussex/Consciousness and control/Exp 1 - stroop suggestion and PCE/Methods/Palfi_script/laptop_size/subject-7.csv,legacy,Jazzy James,3.1.2,0,v,v,space,NA,622,622,120984,NA,2,legacy,1024,2,48000,-16,experiment,0,even,NA,125114,9945,12916,8232,311752,311174,311715,312381,313373,117299,NA,4129,4129,312619,311210,NA,1665,NA,NA,303660,1665,313823,NA,14613,311170,311752,Stroop CI,91,210120,105,yes,1366,GREEN
53,86.79245283,yes,86.79245283,22,1988.292453,1988.292453,#ffffff,no,I,v;b;n;m,legacy,I have read and understood the information shown above,legacy,legacy,green,0,inc,uniform,1,1,1,NA,0,0,0,0,0,101,101,101,101,101,0,0,5,0,101,101,0,0,NA,0,101,0,101,NA,0,101,101,12/06/2016 21:45,The main experiment item,yes,n,IC_RSI2000.osexp,C:\Users\user\Downloads,no,mono,no,18,no,black,no,Ok,NA,yes,Female,768,legacy,65,35,C:/Users/User/Dropbox/Sussex/Consciousness and control/Exp 1 - stroop suggestion and PCE/Methods/Palfi_script/laptop_size/subject-7.csv,legacy,Jazzy James,3.1.2,0,n,n,space,NA,639,639,120984,NA,2,legacy,1024,2,48000,-16,experiment,0,even,NA,125114,9945,12916,8232,314569,313991,314531,315213,316204,117299,NA,4129,4129,315450,314027,NA,1665,NA,NA,303660,1665,316661,NA,14613,313987,314569,Stroop CI,92,210759,106,yes,1366,RED
88,86.91588785,yes,86.91588785,22,1979.813084,1979.813084,#ffffff,no,I,v;b;n;m,legacy,I have read and understood the information shown above,legacy,legacy,#ffef36,0,inc,uniform,1,1,1,NA,0,0,0,0,0,102,102,102,102,102,0,0,5,0,102,102,0,0,NA,0,102,0,102,NA,0,102,102,12/06/2016 21:45,The main experiment item,yes,m,IC_RSI2000.osexp,C:\Users\user\Downloads,no,mono,no,18,no,black,no,Ok,NA,yes,Female,768,legacy,66,35,C:/Users/User/Dropbox/Sussex/Consciousness and control/Exp 1 - stroop suggestion and PCE/Methods/Palfi_script/laptop_size/subject-7.csv,legacy,Jazzy James,3.1.2,0,m,m,space,NA,1081,1081,120984,NA,2,legacy,1024,2,48000,-16,experiment,0,even,NA,125114,9945,12916,8232,317434,316856,317396,318520,319514,117299,NA,4129,4129,318759,316892,NA,1665,NA,NA,303660,1665,319964,NA,14613,316853,317433,Stroop CI,93,211840,107,yes,1366,BLUE
106,87.03703704,yes,87.03703704,22,1967.537037,1967.537037,#ffffff,no,I,v;b;n;m,legacy,I have read and understood the information shown above,legacy,legacy,#ffef36,0,con,uniform,1,1,1,NA,0,0,0,0,0,103,103,103,103,103,0,0,5,0,103,103,0,0,NA,0,103,0,103,NA,0,103,103,12/06/2016 21:45,The main experiment item,yes,m,IC_RSI2000.osexp,C:\Users\user\Downloads,no,mono,no,18,no,black,no,Ok,NA,yes,Female,768,legacy,67,35,C:/Users/User/Dropbox/Sussex/Consciousness and control/Exp 1 - stroop suggestion and PCE/Methods/Palfi_script/laptop_size/subject-7.csv,legacy,Jazzy James,3.1.2,0,m,m,space,NA,654,654,120984,NA,2,legacy,1024,2,48000,-16,experiment,0,even,NA,125114,9945,12916,8232,320738,320160,320701,321398,322392,117299,NA,4129,4129,321637,320197,NA,1665,NA,NA,303660,1665,322842,NA,14613,320156,320738,Stroop CI,94,212494,108,yes,1366,YELLOW
86,87.1559633,yes,87.1559633,22,1953.165138,1953.165138,#ffffff,no,I,v;b;n;m,legacy,I have read and understood the information shown above,legacy,legacy,#ffef36,0,inc,uniform,1,1,1,NA,0,0,0,0,0,104,104,104,104,104,0,0,5,0,104,104,0,0,NA,0,104,0,104,NA,0,104,104,12/06/2016 21:45,The main experiment item,yes,m,IC_RSI2000.osexp,C:\Users\user\Downloads,no,mono,no,18,no,black,no,Ok,NA,yes,Female,768,legacy,68,35,C:/Users/User/Dropbox/Sussex/Consciousness and control/Exp 1 - stroop suggestion and PCE/Methods/Palfi_script/laptop_size/subject-7.csv,legacy,Jazzy James,3.1.2,0,m,m,space,NA,401,401,120984,NA,2,legacy,1024,2,48000,-16,experiment,0,even,NA,125114,9945,12916,8232,323626,323048,323588,324048,325039,117299,NA,4129,4129,324286,323085,NA,1665,NA,NA,303660,1665,325489,NA,14613,323044,323626,Stroop CI,95,212895,109,yes,1366,BLUE
90,87.27272727,yes,87.27272727,22,1940.190909,1940.190909,#ffffff,no,I,v;b;n;m,legacy,I have read and understood the information shown above,legacy,legacy,#ffef36,0,inc,uniform,1,1,1,NA,0,0,0,0,0,105,105,105,105,105,0,0,5,0,105,105,0,0,NA,0,105,0,105,NA,0,105,105,12/06/2016 21:45,The main experiment item,yes,m,IC_RSI2000.osexp,C:\Users\user\Downloads,no,mono,no,18,no,black,no,Ok,NA,yes,Female,768,legacy,69,35,C:/Users/User/Dropbox/Sussex/Consciousness and control/Exp 1 - stroop suggestion and PCE/Methods/Palfi_script/laptop_size/subject-7.csv,legacy,Jazzy James,3.1.2,0,m,m,space,NA,526,526,120984,NA,2,legacy,1024,2,48000,-16,experiment,0,even,NA,125114,9945,12916,8232,326246,325671,326210,326779,327771,117299,NA,4129,4129,327017,325707,NA,1665,NA,NA,303660,1665,328221,NA,14613,325667,326246,Stroop CI,96,213421,110,yes,1366,GREEN
83,87.38738739,yes,87.38738739,22,1926.630631,1926.630631,#ffffff,no,I,v;b;n;m,legacy,I have read and understood the information shown above,legacy,legacy,#ffef36,0,inc,uniform,1,1,1,NA,0,0,0,0,0,106,106,106,106,106,0,0,5,0,106,106,0,0,NA,0,106,0,106,NA,0,106,106,12/06/2016 21:45,The main experiment item,yes,m,IC_RSI2000.osexp,C:\Users\user\Downloads,no,mono,no,18,no,black,no,Ok,NA,yes,Female,768,legacy,70,35,C:/Users/User/Dropbox/Sussex/Consciousness and control/Exp 1 - stroop suggestion and PCE/Methods/Palfi_script/laptop_size/subject-7.csv,legacy,Jazzy James,3.1.2,0,m,m,space,NA,435,435,120984,NA,2,legacy,1024,2,48000,-16,experiment,0,even,NA,125114,9945,12916,8232,328986,328408,328949,329427,330418,117299,NA,4129,4129,329664,328445,NA,1665,NA,NA,303660,1665,330868,NA,14613,328405,328986,Stroop CI,97,213856,111,yes,1366,BLUE
103,87.5,yes,87.5,22,1914.410714,1914.410714,#ffffff,no,I,v;b;n;m,legacy,I have read and understood the information shown above,legacy,legacy,green,0,con,uniform,1,1,1,NA,0,0,0,0,0,107,107,107,107,107,0,0,5,0,107,107,0,0,NA,0,107,0,107,NA,0,107,107,12/06/2016 21:45,The main experiment item,yes,n,IC_RSI2000.osexp,C:\Users\user\Downloads,no,mono,no,18,no,black,no,Ok,NA,yes,Female,768,legacy,71,35,C:/Users/User/Dropbox/Sussex/Consciousness and control/Exp 1 - stroop suggestion and PCE/Methods/Palfi_script/laptop_size/subject-7.csv,legacy,Jazzy James,3.1.2,0,n,n,space,NA,558,558,120984,NA,2,legacy,1024,2,48000,-16,experiment,0,even,NA,125114,9945,12916,8232,331613,331036,331576,332178,333171,117299,NA,4129,4129,332417,331072,NA,1665,NA,NA,303660,1665,333621,NA,14613,331032,331613,Stroop CI,98,214414,112,yes,1366,GREEN
102,86.72566372,yes,86.72566372,22,1902.176991,1902.176991,#ffffff,no,I,v;b;n;m,legacy,I have read and understood the information shown above,legacy,legacy,blue,0,con,uniform,0,0,1,NA,0,0,0,0,0,108,108,108,108,108,0,0,5,0,108,108,0,0,NA,0,108,0,108,NA,0,108,108,12/06/2016 21:45,The main experiment item,yes,b,IC_RSI2000.osexp,C:\Users\user\Downloads,no,mono,no,18,no,black,no,Ok,NA,yes,Female,768,legacy,72,35,C:/Users/User/Dropbox/Sussex/Consciousness and control/Exp 1 - stroop suggestion and PCE/Methods/Palfi_script/laptop_size/subject-7.csv,legacy,Jazzy James,3.1.2,0,v,v,space,NA,532,532,120984,NA,2,legacy,1024,2,48000,-16,experiment,0,even,NA,125114,9945,12916,8232,334392,333815,334355,334930,335923,117299,NA,4129,4129,332417,333851,NA,1665,NA,NA,335168,1665,336373,NA,14613,333812,334392,Stroop CI,98,214946,113,yes,1366,BLUE
117,86.84210526,yes,86.84210526,22,1892.070175,1892.070175,#ffffff,no,I,v;b;n;m,legacy,I have read and understood the information shown above,legacy,legacy,green,0,neutral,uniform,1,1,1,NA,0,0,0,0,0,109,109,109,109,109,0,0,5,0,109,109,0,0,NA,0,109,0,109,NA,0,109,109,12/06/2016 21:45,The main experiment item,yes,n,IC_RSI2000.osexp,C:\Users\user\Downloads,no,mono,no,18,no,black,no,Ok,NA,yes,Female,768,legacy,73,35,C:/Users/User/Dropbox/Sussex/Consciousness and control/Exp 1 - stroop suggestion and PCE/Methods/Palfi_script/laptop_size/subject-7.csv,legacy,Jazzy James,3.1.2,0,n,n,space,NA,750,750,120984,NA,2,legacy,1024,2,48000,-16,experiment,0,even,NA,125114,9945,12916,8232,337124,336547,337087,337879,338870,117299,NA,4129,4129,338117,336583,NA,1665,NA,NA,335168,1665,339320,NA,14613,336544,337124,Stroop CI,99,215696,114,yes,1366,FLOWER
107,86.08695652,yes,86.08695652,22,1881.295652,1881.295652,#ffffff,no,I,v;b;n;m,legacy,I have read and understood the information shown above,legacy,legacy,#ffef36,0,con,uniform,0,0,1,NA,0,0,0,0,0,110,110,110,110,110,0,0,5,0,110,110,0,0,NA,0,110,0,110,NA,0,110,110,12/06/2016 21:45,The main experiment item,yes,m,IC_RSI2000.osexp,C:\Users\user\Downloads,no,mono,no,18,no,black,no,Ok,NA,yes,Female,768,legacy,74,35,C:/Users/User/Dropbox/Sussex/Consciousness and control/Exp 1 - stroop suggestion and PCE/Methods/Palfi_script/laptop_size/subject-7.csv,legacy,Jazzy James,3.1.2,0,b,b,space,NA,653,653,120984,NA,2,legacy,1024,2,48000,-16,experiment,0,even,NA,125114,9945,12916,8232,340082,339507,340046,340740,341732,117299,NA,4129,4129,338117,339543,NA,1665,NA,NA,340978,1665,342183,NA,14613,339503,340082,Stroop CI,99,216349,115,yes,1366,YELLOW
1,86.20689655,yes,86.20689655,22,1871.681034,1871.681034,#ffffff,no,I,v;b;n;m,legacy,I have read and understood the information shown above,legacy,legacy,red,0,inc,uniform,1,1,1,NA,0,0,0,0,0,111,111,111,111,111,0,0,5,0,111,111,0,0,NA,0,111,0,111,NA,0,111,111,12/06/2016 21:45,The main experiment item,yes,v,IC_RSI2000.osexp,C:\Users\user\Downloads,no,mono,no,18,no,black,no,Ok,NA,yes,Female,768,legacy,75,35,C:/Users/User/Dropbox/Sussex/Consciousness and control/Exp 1 - stroop suggestion and PCE/Methods/Palfi_script/laptop_size/subject-7.csv,legacy,Jazzy James,3.1.2,0,v,v,space,NA,766,766,120984,NA,2,legacy,1024,2,48000,-16,experiment,0,even,NA,125114,9945,12916,8232,342948,342370,342912,343719,344711,117299,NA,4129,4129,343957,342407,NA,1665,NA,NA,340978,1665,345162,NA,14613,342366,342948,Stroop CI,100,217115,116,yes,1366,BLUE
18,86.32478632,yes,86.32478632,22,1858.880342,1858.880342,#ffffff,no,I,v;b;n;m,legacy,I have read and understood the information shown above,legacy,legacy,red,0,inc,uniform,1,1,1,NA,0,0,0,0,0,112,112,112,112,112,0,0,5,0,112,112,0,0,NA,0,112,0,112,NA,0,112,112,12/06/2016 21:45,The main experiment item,yes,v,IC_RSI2000.osexp,C:\Users\user\Downloads,no,mono,no,18,no,black,no,Ok,NA,yes,Female,768,legacy,76,35,C:/Users/User/Dropbox/Sussex/Consciousness and control/Exp 1 - stroop suggestion and PCE/Methods/Palfi_script/laptop_size/subject-7.csv,legacy,Jazzy James,3.1.2,0,v,v,space,NA,374,374,120984,NA,2,legacy,1024,2,48000,-16,experiment,0,even,NA,125114,9945,12916,8232,345917,345339,345879,346297,347290,117299,NA,4129,4129,346535,345375,NA,1665,NA,NA,340978,1665,347740,NA,14613,345336,345916,Stroop CI,101,217489,117,yes,1366,YELLOW
50,86.44067797,yes,86.44067797,22,1850.016949,1850.016949,#ffffff,no,I,v;b;n;m,legacy,I have read and understood the information shown above,legacy,legacy,green,0,inc,uniform,1,1,1,NA,0,0,0,0,0,113,113,113,113,113,0,0,5,0,113,113,0,0,NA,0,113,0,113,NA,0,113,113,12/06/2016 21:45,The main experiment item,yes,n,IC_RSI2000.osexp,C:\Users\user\Downloads,no,mono,no,18,no,black,no,Ok,NA,yes,Female,768,legacy,77,35,C:/Users/User/Dropbox/Sussex/Consciousness and control/Exp 1 - stroop suggestion and PCE/Methods/Palfi_script/laptop_size/subject-7.csv,legacy,Jazzy James,3.1.2,0,n,n,space,NA,813,813,120984,NA,2,legacy,1024,2,48000,-16,experiment,0,even,NA,125114,9945,12916,8232,348661,348086,348625,349479,350472,117299,NA,4129,4129,349717,348122,NA,1665,NA,NA,340978,1665,350922,NA,14613,348083,348661,Stroop CI,102,218302,118,yes,1366,RED
100,85.71428571,yes,85.71428571,22,1843.630252,1843.630252,#ffffff,no,I,v;b;n;m,legacy,I have read and understood the information shown above,legacy,legacy,blue,0,con,uniform,0,0,1,NA,0,0,0,0,0,114,114,114,114,114,0,0,5,0,114,114,0,0,NA,0,114,0,114,NA,0,114,114,12/06/2016 21:45,The main experiment item,yes,b,IC_RSI2000.osexp,C:\Users\user\Downloads,no,mono,no,18,no,black,no,Ok,NA,yes,Female,768,legacy,78,35,C:/Users/User/Dropbox/Sussex/Consciousness and control/Exp 1 - stroop suggestion and PCE/Methods/Palfi_script/laptop_size/subject-7.csv,legacy,Jazzy James,3.1.2,0,n,n,space,NA,1090,1090,120984,NA,2,legacy,1024,2,48000,-16,experiment,0,even,NA,125114,9945,12916,8232,351671,351094,351634,352767,353759,117299,NA,4129,4129,349717,351130,NA,1665,NA,NA,353005,1665,354209,NA,14613,351090,351671,Stroop CI,102,219392,119,yes,1366,BLUE
77,85,yes,85,22,1835.325,1835.325,#ffffff,no,I,v;b;n;m,legacy,I have read and understood the information shown above,legacy,legacy,#ffef36,0,inc,uniform,0,0,1,NA,0,0,0,0,0,115,115,115,115,115,0,0,5,0,115,115,0,0,NA,0,115,0,115,NA,0,115,115,12/06/2016 21:45,The main experiment item,yes,m,IC_RSI2000.osexp,C:\Users\user\Downloads,no,mono,no,18,no,black,no,Ok,NA,yes,Female,768,legacy,79,35,C:/Users/User/Dropbox/Sussex/Consciousness and control/Exp 1 - stroop suggestion and PCE/Methods/Palfi_script/laptop_size/subject-7.csv,legacy,Jazzy James,3.1.2,0,n,n,space,NA,847,847,120984,NA,2,legacy,1024,2,48000,-16,experiment,0,even,NA,125114,9945,12916,8232,354976,354399,354939,355828,356820,117299,NA,4129,4129,349717,354435,NA,1665,NA,NA,356066,1665,357270,NA,14613,354395,354975,Stroop CI,102,220239,120,yes,1366,RED
92,85.12396694,yes,85.12396694,22,1823.487603,1823.487603,#ffffff,no,I,v;b;n;m,legacy,I have read and understood the information shown above,legacy,legacy,#ffef36,0,inc,uniform,1,1,1,NA,0,0,0,0,0,116,116,116,116,116,0,0,5,0,116,116,0,0,NA,0,116,0,116,NA,0,116,116,12/06/2016 21:45,The main experiment item,yes,m,IC_RSI2000.osexp,C:\Users\user\Downloads,no,mono,no,18,no,black,no,Ok,NA,yes,Female,768,legacy,80,35,C:/Users/User/Dropbox/Sussex/Consciousness and control/Exp 1 - stroop suggestion and PCE/Methods/Palfi_script/laptop_size/subject-7.csv,legacy,Jazzy James,3.1.2,0,m,m,space,NA,403,403,120984,NA,2,legacy,1024,2,48000,-16,experiment,0,even,NA,125114,9945,12916,8232,358036,357459,357999,358445,359437,117299,NA,4129,4129,358683,357495,NA,1665,NA,NA,356066,1665,359887,NA,14613,357455,358036,Stroop CI,103,220642,121,yes,1366,GREEN
58,85.24590164,yes,85.24590164,22,1814.213115,1814.213115,#ffffff,no,I,v;b;n;m,legacy,I have read and understood the information shown above,legacy,legacy,green,0,inc,uniform,1,1,1,NA,0,0,0,0,0,117,117,117,117,117,0,0,5,0,117,117,0,0,NA,0,117,0,117,NA,0,117,117,12/06/2016 21:45,The main experiment item,yes,n,IC_RSI2000.osexp,C:\Users\user\Downloads,no,mono,no,18,no,black,no,Ok,NA,yes,Female,768,legacy,81,35,C:/Users/User/Dropbox/Sussex/Consciousness and control/Exp 1 - stroop suggestion and PCE/Methods/Palfi_script/laptop_size/subject-7.csv,legacy,Jazzy James,3.1.2,0,n,n,space,NA,692,692,120984,NA,2,legacy,1024,2,48000,-16,experiment,0,even,NA,125114,9945,12916,8232,360647,360070,360610,361344,362337,117299,NA,4129,4129,361583,360106,NA,1665,NA,NA,356066,1665,362787,NA,14613,360066,360647,Stroop CI,104,221334,122,yes,1366,BLUE
80,85.36585366,yes,85.36585366,22,1803.813008,1803.813008,#ffffff,no,I,v;b;n;m,legacy,I have read and understood the information shown above,legacy,legacy,#ffef36,0,inc,uniform,1,1,1,NA,0,0,0,0,0,118,118,118,118,118,0,0,5,0,118,118,0,0,NA,0,118,0,118,NA,0,118,118,12/06/2016 21:45,The main experiment item,yes,m,IC_RSI2000.osexp,C:\Users\user\Downloads,no,mono,no,18,no,black,no,Ok,NA,yes,Female,768,legacy,82,35,C:/Users/User/Dropbox/Sussex/Consciousness and control/Exp 1 - stroop suggestion and PCE/Methods/Palfi_script/laptop_size/subject-7.csv,legacy,Jazzy James,3.1.2,0,m,m,space,NA,535,535,120984,NA,2,legacy,1024,2,48000,-16,experiment,0,even,NA,125114,9945,12916,8232,363538,362961,363501,364080,365072,117299,NA,4129,4129,364318,362997,NA,1665,NA,NA,356066,1665,365522,NA,14613,362958,363538,Stroop CI,105,221869,123,yes,1366,RED
