"ID","acc","accept_status","accuracy","age","average_response_time","avg_rt","background","bidi","block","buttons","canvas_backend","checkbox_status","clock_backend","color_backend","colour","compensation","congruency","coordinates","correct","correct_answer","correct_button_block","correct_new_keyboard_response","count_C","count_I","count_Instruction","count_Practice_start","count_age","count_answer","count_blank","count_blank2","count_blank3","count_blank_4","count_break","count_break2","count_button_block","count_consent_form","count_correct_feedback","count_cross","count_end","count_experiment","count_feedback","count_gender","count_incorrect_feedback","count_information_sheet","count_logger","count_new_keyboard_response","count_practice","count_stroop","count_target","datetime","description","disable_garbage_collection","expected","experiment_path","font_bold","font_family","font_italic","font_size","font_underline","foreground","form_clicks","form_response","form_var","fullscreen","gender","height","keyboard_backend","logfile","mouse_backend","opensesame_codename","opensesame_version","repeat_cycle","response","response_answer","response_button_block","response_new_keyboard_response","response_time","response_time_answer","response_time_button_block","response_time_new_keyboard_response","round_decimals","sampler_backend","sound_buf_size","sound_channels","sound_freq","sound_sample_size","start","subject_nr","subject_parity","time_C","time_I","time_Instruction","time_Practice_start","time_age","time_answer","time_blank","time_blank2","time_blank3","time_blank_4","time_break","time_break2","time_button_block","time_consent_form","time_correct_feedback","time_cross","time_end","time_experiment","time_feedback","time_gender","time_incorrect_feedback","time_information_sheet","time_logger","time_new_keyboard_response","time_practice","time_stroop","time_target","title","total_correct","total_response_time","total_responses","uniform_coordinates","width","word"
"14","100","yes","100","23","17079","17079","#ffffff","no","practice","v;b;n;m","legacy","I have read and understood the information shown above","legacy","legacy","red","0","con","uniform","1","1","1","NA","0","0","0","0","0","0","0","0","0","0","0","0","5","0","0","0","0","0","NA","0","0","0","0","NA","0","0","0","12/06/16 12:07:21","The main experiment item","yes","v","W:\Sussex\Consciousness and control\Exp 1 - stroop suggestion and PCE\Methods\Palfi_script","no","mono","no","18","no","black","no","Ok","NA","no","Female","768","legacy","C:/Users/User/Dropbox/Sussex/Consciousness and control/Exp 1 - stroop suggestion and PCE/Methods/Palfi_script/laptop_size/subject-0.csv","legacy","Interactive Ising","3.0.2","0","v","v","space","NA","625","625","3150","NA","2","legacy","1024","2","48000","-16","experiment","0","even","NA","NA","58992","120648","53314","124469","123897","124434","125097","126087","NA","NA","120648","45195","125335","123932","NA","2063","NA","NA","NA","2063","126537","NA","123799","123895","124469","Stroop CI","4","68319","4","yes","1366","RED"
"34","100","yes","100","23","13885","13885","#ffffff","no","practice","v;b;n;m","legacy","I have read and understood the information shown above","legacy","legacy","#ffef36","0","neutral","uniform","1","1","1","NA","0","0","0","0","0","1","1","1","1","1","0","0","5","0","1","1","0","0","NA","0","1","0","1","NA","0","1","1","12/06/16 12:07:21","The main experiment item","yes","m","W:\Sussex\Consciousness and control\Exp 1 - stroop suggestion and PCE\Methods\Palfi_script","no","mono","no","18","no","black","no","Ok","NA","no","Female","768","legacy","C:/Users/User/Dropbox/Sussex/Consciousness and control/Exp 1 - stroop suggestion and PCE/Methods/Palfi_script/laptop_size/subject-0.csv","legacy","Interactive Ising","3.0.2","0","m","m","space","NA","1109","1109","3150","NA","2","legacy","1024","2","48000","-16","experiment","0","even","NA","NA","58992","120648","53314","127275","126703","127240","128387","129375","NA","NA","120648","45195","128623","126738","NA","2063","NA","NA","NA","2063","129825","NA","123799","126701","127275","Stroop CI","5","69428","5","yes","1366","LOT"
"12","100","yes","100","23","11807","11807","#ffffff","no","practice","v;b;n;m","legacy","I have read and understood the information shown above","legacy","legacy","#ffef36","0","inc","uniform","1","1","1","NA","0","0","0","0","0","2","2","2","2","2","0","0","5","0","2","2","0","0","NA","0","2","0","2","NA","0","2","2","12/06/16 12:07:21","The main experiment item","yes","m","W:\Sussex\Consciousness and control\Exp 1 - stroop suggestion and PCE\Methods\Palfi_script","no","mono","no","18","no","black","no","Ok","NA","no","Female","768","legacy","C:/Users/User/Dropbox/Sussex/Consciousness and control/Exp 1 - stroop suggestion and PCE/Methods/Palfi_script/laptop_size/subject-0.csv","legacy","Interactive Ising","3.0.2","0","m","m","space","NA","1414","1414","3150","NA","2","legacy","1024","2","48000","-16","experiment","0","even","NA","NA","58992","120648","53314","130547","129975","130512","131965","132954","NA","NA","120648","45195","132201","130010","NA","2063","NA","NA","NA","2063","133404","NA","123799","129972","130547","Stroop CI","6","70842","6","yes","1366","GREEN"
"5","85.7142857143","yes","85.7142857143","23","10212","10212","#ffffff","no","practice","v;b;n;m","legacy","I have read and understood the information shown above","legacy","legacy","blue","0","inc","uniform","0","0","1","NA","0","0","0","0","0","3","3","3","3","3","0","0","5","0","3","3","0","0","NA","0","3","0","3","NA","0","3","3","12/06/16 12:07:21","The main experiment item","yes","b","W:\Sussex\Consciousness and control\Exp 1 - stroop suggestion and PCE\Methods\Palfi_script","no","mono","no","18","no","black","no","Ok","NA","no","Female","768","legacy","C:/Users/User/Dropbox/Sussex/Consciousness and control/Exp 1 - stroop suggestion and PCE/Methods/Palfi_script/laptop_size/subject-0.csv","legacy","Interactive Ising","3.0.2","0","n","n","space","NA","642","642","3150","NA","2","legacy","1024","2","48000","-16","experiment","0","even","NA","NA","58992","120648","53314","134130","133558","134095","134775","135763","NA","NA","120648","45195","132201","133593","NA","2063","NA","NA","135011","2063","136213","NA","123799","133556","134130","Stroop CI","6","71484","7","yes","1366","GREEN"
"31","87.5","yes","87.5","23","9018","9018","#ffffff","no","practice","v;b;n;m","legacy","I have read and understood the information shown above","legacy","legacy","green","0","neutral","uniform","1","1","1","NA","0","0","0","0","0","4","4","4","4","4","0","0","5","0","4","4","0","0","NA","0","4","0","4","NA","0","4","4","12/06/16 12:07:21","The main experiment item","yes","n","W:\Sussex\Consciousness and control\Exp 1 - stroop suggestion and PCE\Methods\Palfi_script","no","mono","no","18","no","black","no","Ok","NA","no","Female","768","legacy","C:/Users/User/Dropbox/Sussex/Consciousness and control/Exp 1 - stroop suggestion and PCE/Methods/Palfi_script/laptop_size/subject-0.csv","legacy","Interactive Ising","3.0.2","0","n","n","space","NA","666","666","3150","NA","2","legacy","1024","2","48000","-16","experiment","0","even","NA","NA","58992","120648","53314","136944","136372","136909","137613","138601","NA","NA","120648","45195","137849","136407","NA","2063","NA","NA","135011","2063","139051","NA","123799","136370","136944","Stroop CI","7","72150","8","yes","1366","LOT"
"25","88.8888888889","yes","88.8888888889","23","8104","8104","#ffffff","no","practice","v;b;n;m","legacy","I have read and understood the information shown above","legacy","legacy","red","0","neutral","uniform","1","1","1","NA","0","0","0","0","0","5","5","5","5","5","0","0","5","0","5","5","0","0","NA","0","5","0","5","NA","0","5","5","12/06/16 12:07:21","The main experiment item","yes","v","W:\Sussex\Consciousness and control\Exp 1 - stroop suggestion and PCE\Methods\Palfi_script","no","mono","no","18","no","black","no","Ok","NA","no","Female","768","legacy","C:/Users/User/Dropbox/Sussex/Consciousness and control/Exp 1 - stroop suggestion and PCE/Methods/Palfi_script/laptop_size/subject-0.csv","legacy","Interactive Ising","3.0.2","0","v","v","space","NA","786","786","3150","NA","2","legacy","1024","2","48000","-16","experiment","0","even","NA","NA","58992","120648","53314","139781","139209","139746","140570","141560","NA","NA","120648","45195","140808","139244","NA","2063","NA","NA","135011","2063","142010","NA","123799","139207","139781","Stroop CI","8","72936","9","yes","1366","SHIP"
"24","90","yes","90","23","7438","7438","#ffffff","no","practice","v;b;n;m","legacy","I have read and understood the information shown above","legacy","legacy","#ffef36","0","con","uniform","1","1","1","NA","0","0","0","0","0","6","6","6","6","6","0","0","5","0","6","6","0","0","NA","0","6","0","6","NA","0","6","6","12/06/16 12:07:21","The main experiment item","yes","m","W:\Sussex\Consciousness and control\Exp 1 - stroop suggestion and PCE\Methods\Palfi_script","no","mono","no","18","no","black","no","Ok","NA","no","Female","768","legacy","C:/Users/User/Dropbox/Sussex/Consciousness and control/Exp 1 - stroop suggestion and PCE/Methods/Palfi_script/laptop_size/subject-0.csv","legacy","Interactive Ising","3.0.2","0","m","m","space","NA","1449","1449","3150","NA","2","legacy","1024","2","48000","-16","experiment","0","even","NA","NA","58992","120648","53314","142751","142177","142715","144203","145193","NA","NA","120648","45195","144441","142213","NA","2063","NA","NA","135011","2063","145643","NA","123799","142175","142750","Stroop CI","9","74385","10","yes","1366","YELLOW"
"2","90.9090909091","yes","90.9090909091","23","6844","6844","#ffffff","no","practice","v;b;n;m","legacy","I have read and understood the information shown above","legacy","legacy","red","0","inc","uniform","1","1","1","NA","0","0","0","0","0","7","7","7","7","7","0","0","5","0","7","7","0","0","NA","0","7","0","7","NA","0","7","7","12/06/16 12:07:21","The main experiment item","yes","v","W:\Sussex\Consciousness and control\Exp 1 - stroop suggestion and PCE\Methods\Palfi_script","no","mono","no","18","no","black","no","Ok","NA","no","Female","768","legacy","C:/Users/User/Dropbox/Sussex/Consciousness and control/Exp 1 - stroop suggestion and PCE/Methods/Palfi_script/laptop_size/subject-0.csv","legacy","Interactive Ising","3.0.2","0","v","v","space","NA","904","904","3150","NA","2","legacy","1024","2","48000","-16","experiment","0","even","NA","NA","58992","120648","53314","146350","145777","146314","147257","148245","NA","NA","120648","45195","147493","145812","NA","2063","NA","NA","135011","2063","148695","NA","123799","145774","146349","Stroop CI","10","75289","11","yes","1366","GREEN"
"33","91.6666666667","yes","91.6666666667","23","6339","6339","#ffffff","no","practice","v;b;n;m","legacy","I have read and understood the information shown above","legacy","legacy","green","0","neutral","uniform","1","1","1","NA","0","0","0","0","0","8","8","8","8","8","0","0","5","0","8","8","0","0","NA","0","8","0","8","NA","0","8","8","12/06/16 12:07:21","The main experiment item","yes","n","W:\Sussex\Consciousness and control\Exp 1 - stroop suggestion and PCE\Methods\Palfi_script","no","mono","no","18","no","black","no","Ok","NA","no","Female","768","legacy","C:/Users/User/Dropbox/Sussex/Consciousness and control/Exp 1 - stroop suggestion and PCE/Methods/Palfi_script/laptop_size/subject-0.csv","legacy","Interactive Ising","3.0.2","0","n","n","space","NA","779","779","3150","NA","2","legacy","1024","2","48000","-16","experiment","0","even","NA","NA","58992","120648","53314","149442","148870","149407","150224","151212","NA","NA","120648","45195","150460","148905","NA","2063","NA","NA","135011","2063","151662","NA","123799","148868","149442","Stroop CI","11","76068","12","yes","1366","FLOWER"
"9","92.3076923077","yes","92.3076923077","23","5933","5933","#ffffff","no","practice","v;b;n;m","legacy","I have read and understood the information shown above","legacy","legacy","green","0","inc","uniform","1","1","1","NA","0","0","0","0","0","9","9","9","9","9","0","0","5","0","9","9","0","0","NA","0","9","0","9","NA","0","9","9","12/06/16 12:07:21","The main experiment item","yes","n","W:\Sussex\Consciousness and control\Exp 1 - stroop suggestion and PCE\Methods\Palfi_script","no","mono","no","18","no","black","no","Ok","NA","no","Female","768","legacy","C:/Users/User/Dropbox/Sussex/Consciousness and control/Exp 1 - stroop suggestion and PCE/Methods/Palfi_script/laptop_size/subject-0.csv","legacy","Interactive Ising","3.0.2","0","n","n","space","NA","1065","1065","3150","NA","2","legacy","1024","2","48000","-16","experiment","0","even","NA","NA","58992","120648","53314","152389","151817","152354","153457","154445","NA","NA","120648","45195","153693","151852","NA","2063","NA","NA","135011","2063","154895","NA","123799","151815","152389","Stroop CI","12","77133","13","yes","1366","YELLOW"
"11","92.8571428571","yes","92.8571428571","23","5580","5580","#ffffff","no","practice","v;b;n;m","legacy","I have read and understood the information shown above","legacy","legacy","#ffef36","0","inc","uniform","1","1","1","NA","0","0","0","0","0","10","10","10","10","10","0","0","5","0","10","10","0","0","NA","0","10","0","10","NA","0","10","10","12/06/16 12:07:21","The main experiment item","yes","m","W:\Sussex\Consciousness and control\Exp 1 - stroop suggestion and PCE\Methods\Palfi_script","no","mono","no","18","no","black","no","Ok","NA","no","Female","768","legacy","C:/Users/User/Dropbox/Sussex/Consciousness and control/Exp 1 - stroop suggestion and PCE/Methods/Palfi_script/laptop_size/subject-0.csv","legacy","Interactive Ising","3.0.2","0","m","m","space","NA","992","992","3150","NA","2","legacy","1024","2","48000","-16","experiment","0","even","NA","NA","58992","120648","53314","155648","155076","155613","156643","157632","NA","NA","120648","45195","156880","155111","NA","2063","NA","NA","135011","2063","158082","NA","123799","155074","155648","Stroop CI","13","78125","14","yes","1366","BLUE"
"20","93.3333333333","yes","93.3333333333","23","5267","5267","#ffffff","no","practice","v;b;n;m","legacy","I have read and understood the information shown above","legacy","legacy","green","0","con","uniform","1","1","1","NA","0","0","0","0","0","11","11","11","11","11","0","0","5","0","11","11","0","0","NA","0","11","0","11","NA","0","11","11","12/06/16 12:07:21","The main experiment item","yes","n","W:\Sussex\Consciousness and control\Exp 1 - stroop suggestion and PCE\Methods\Palfi_script","no","mono","no","18","no","black","no","Ok","NA","no","Female","768","legacy","C:/Users/User/Dropbox/Sussex/Consciousness and control/Exp 1 - stroop suggestion and PCE/Methods/Palfi_script/laptop_size/subject-0.csv","legacy","Interactive Ising","3.0.2","0","n","n","space","NA","892","892","3150","NA","2","legacy","1024","2","48000","-16","experiment","0","even","NA","NA","58992","120648","53314","158837","158265","158802","159732","160722","NA","NA","120648","45195","159970","158300","NA","2063","NA","NA","135011","2063","161172","NA","123799","158262","158837","Stroop CI","14","79017","15","yes","1366","GREEN"
"17","93.75","yes","93.75","23","4996","4996","#ffffff","no","practice","v;b;n;m","legacy","I have read and understood the information shown above","legacy","legacy","blue","0","con","uniform","1","1","1","NA","0","0","0","0","0","12","12","12","12","12","0","0","5","0","12","12","0","0","NA","0","12","0","12","NA","0","12","12","12/06/16 12:07:21","The main experiment item","yes","b","W:\Sussex\Consciousness and control\Exp 1 - stroop suggestion and PCE\Methods\Palfi_script","no","mono","no","18","no","black","no","Ok","NA","no","Female","768","legacy","C:/Users/User/Dropbox/Sussex/Consciousness and control/Exp 1 - stroop suggestion and PCE/Methods/Palfi_script/laptop_size/subject-0.csv","legacy","Interactive Ising","3.0.2","0","b","b","space","NA","920","920","3150","NA","2","legacy","1024","2","48000","-16","experiment","0","even","NA","NA","58992","120648","53314","161917","161345","161882","162841","163829","NA","NA","120648","45195","163077","161380","NA","2063","NA","NA","135011","2063","164279","NA","123799","161342","161917","Stroop CI","15","79937","16","yes","1366","BLUE"
"16","94.1176470588","yes","94.1176470588","23","4739","4739","#ffffff","no","practice","v;b;n;m","legacy","I have read and understood the information shown above","legacy","legacy","blue","0","con","uniform","1","1","1","NA","0","0","0","0","0","13","13","13","13","13","0","0","5","0","13","13","0","0","NA","0","13","0","13","NA","0","13","13","12/06/16 12:07:21","The main experiment item","yes","b","W:\Sussex\Consciousness and control\Exp 1 - stroop suggestion and PCE\Methods\Palfi_script","no","mono","no","18","no","black","no","Ok","NA","no","Female","768","legacy","C:/Users/User/Dropbox/Sussex/Consciousness and control/Exp 1 - stroop suggestion and PCE/Methods/Palfi_script/laptop_size/subject-0.csv","legacy","Interactive Ising","3.0.2","0","b","b","space","NA","626","626","3150","NA","2","legacy","1024","2","48000","-16","experiment","0","even","NA","NA","58992","120648","53314","165043","164470","165007","165672","166661","NA","NA","120648","45195","165908","164505","NA","2063","NA","NA","135011","2063","167111","NA","123799","164468","165043","Stroop CI","16","80563","17","yes","1366","BLUE"
"26","94.4444444444","yes","94.4444444444","23","4510","4510","#ffffff","no","practice","v;b;n;m","legacy","I have read and understood the information shown above","legacy","legacy","red","0","neutral","uniform","1","1","1","NA","0","0","0","0","0","14","14","14","14","14","0","0","5","0","14","14","0","0","NA","0","14","0","14","NA","0","14","14","12/06/16 12:07:21","The main experiment item","yes","v","W:\Sussex\Consciousness and control\Exp 1 - stroop suggestion and PCE\Methods\Palfi_script","no","mono","no","18","no","black","no","Ok","NA","no","Female","768","legacy","C:/Users/User/Dropbox/Sussex/Consciousness and control/Exp 1 - stroop suggestion and PCE/Methods/Palfi_script/laptop_size/subject-0.csv","legacy","Interactive Ising","3.0.2","0","v","v","space","NA","623","623","3150","NA","2","legacy","1024","2","48000","-16","experiment","0","even","NA","NA","58992","120648","53314","167879","167305","167844","168504","169496","NA","NA","120648","45195","168743","167340","NA","2063","NA","NA","135011","2063","169946","NA","123799","167303","167879","Stroop CI","17","81186","18","yes","1366","KNIFE"
"22","94.7368421053","yes","94.7368421053","23","4314","4314","#ffffff","no","practice","v;b;n;m","legacy","I have read and understood the information shown above","legacy","legacy","#ffef36","0","con","uniform","1","1","1","NA","0","0","0","0","0","15","15","15","15","15","0","0","5","0","15","15","0","0","NA","0","15","0","15","NA","0","15","15","12/06/16 12:07:21","The main experiment item","yes","m","W:\Sussex\Consciousness and control\Exp 1 - stroop suggestion and PCE\Methods\Palfi_script","no","mono","no","18","no","black","no","Ok","NA","no","Female","768","legacy","C:/Users/User/Dropbox/Sussex/Consciousness and control/Exp 1 - stroop suggestion and PCE/Methods/Palfi_script/laptop_size/subject-0.csv","legacy","Interactive Ising","3.0.2","0","m","m","space","NA","791","791","3150","NA","2","legacy","1024","2","48000","-16","experiment","0","even","NA","NA","58992","120648","53314","170727","170152","170692","171521","172511","NA","NA","120648","45195","171759","170188","NA","2063","NA","NA","135011","2063","172961","NA","123799","170150","170727","Stroop CI","18","81977","19","yes","1366","YELLOW"
"28","95","yes","95","23","4128","4128","#ffffff","no","practice","v;b;n;m","legacy","I have read and understood the information shown above","legacy","legacy","blue","0","neutral","uniform","1","1","1","NA","0","0","0","0","0","16","16","16","16","16","0","0","5","0","16","16","0","0","NA","0","16","0","16","NA","0","16","16","12/06/16 12:07:21","The main experiment item","yes","b","W:\Sussex\Consciousness and control\Exp 1 - stroop suggestion and PCE\Methods\Palfi_script","no","mono","no","18","no","black","no","Ok","NA","no","Female","768","legacy","C:/Users/User/Dropbox/Sussex/Consciousness and control/Exp 1 - stroop suggestion and PCE/Methods/Palfi_script/laptop_size/subject-0.csv","legacy","Interactive Ising","3.0.2","0","b","b","space","NA","583","583","3150","NA","2","legacy","1024","2","48000","-16","experiment","0","even","NA","NA","58992","120648","53314","173717","173145","173682","174304","175294","NA","NA","120648","45195","174540","173180","NA","2063","NA","NA","135011","2063","175744","NA","123799","173142","173717","Stroop CI","19","82560","20","yes","1366","LOT"
"29","95.2380952381","yes","95.2380952381","23","3966","3966","#ffffff","no","practice","v;b;n;m","legacy","I have read and understood the information shown above","legacy","legacy","blue","0","neutral","uniform","1","1","1","NA","0","0","0","0","0","17","17","17","17","17","0","0","5","0","17","17","0","0","NA","0","17","0","17","NA","0","17","17","12/06/16 12:07:21","The main experiment item","yes","b","W:\Sussex\Consciousness and control\Exp 1 - stroop suggestion and PCE\Methods\Palfi_script","no","mono","no","18","no","black","no","Ok","NA","no","Female","768","legacy","C:/Users/User/Dropbox/Sussex/Consciousness and control/Exp 1 - stroop suggestion and PCE/Methods/Palfi_script/laptop_size/subject-0.csv","legacy","Interactive Ising","3.0.2","0","b","b","space","NA","737","737","3150","NA","2","legacy","1024","2","48000","-16","experiment","0","even","NA","NA","58992","120648","53314","176499","175927","176464","177239","178227","NA","NA","120648","45195","177475","175962","NA","2063","NA","NA","135011","2063","178677","NA","123799","175925","176499","Stroop CI","20","83297","21","yes","1366","KNIFE"
"4","95.4545454545","yes","95.4545454545","23","3813","3813","#ffffff","no","practice","v;b;n;m","legacy","I have read and understood the information shown above","legacy","legacy","blue","0","inc","uniform","1","1","1","NA","0","0","0","0","0","18","18","18","18","18","0","0","5","0","18","18","0","0","NA","0","18","0","18","NA","0","18","18","12/06/16 12:07:21","The main experiment item","yes","b","W:\Sussex\Consciousness and control\Exp 1 - stroop suggestion and PCE\Methods\Palfi_script","no","mono","no","18","no","black","no","Ok","NA","no","Female","768","legacy","C:/Users/User/Dropbox/Sussex/Consciousness and control/Exp 1 - stroop suggestion and PCE/Methods/Palfi_script/laptop_size/subject-0.csv","legacy","Interactive Ising","3.0.2","0","b","b","space","NA","600","600","3150","NA","2","legacy","1024","2","48000","-16","experiment","0","even","NA","NA","58992","120648","53314","179382","178810","179347","179984","180973","NA","NA","120648","45195","180221","178845","NA","2063","NA","NA","135011","2063","181423","NA","123799","178808","179382","Stroop CI","21","83897","22","yes","1366","RED"
"13","95.652173913","yes","95.652173913","23","3671","3671","#ffffff","no","practice","v;b;n;m","legacy","I have read and understood the information shown above","legacy","legacy","red","0","con","uniform","1","1","1","NA","0","0","0","0","0","19","19","19","19","19","0","0","5","0","19","19","0","0","NA","0","19","0","19","NA","0","19","19","12/06/16 12:07:21","The main experiment item","yes","v","W:\Sussex\Consciousness and control\Exp 1 - stroop suggestion and PCE\Methods\Palfi_script","no","mono","no","18","no","black","no","Ok","NA","no","Female","768","legacy","C:/Users/User/Dropbox/Sussex/Consciousness and control/Exp 1 - stroop suggestion and PCE/Methods/Palfi_script/laptop_size/subject-0.csv","legacy","Interactive Ising","3.0.2","0","v","v","space","NA","541","541","3150","NA","2","legacy","1024","2","48000","-16","experiment","0","even","NA","NA","58992","120648","53314","182218","181645","182182","182762","183750","NA","NA","120648","45195","182998","181680","NA","2063","NA","NA","135011","2063","184200","NA","123799","181642","182218","Stroop CI","22","84438","23","yes","1366","RED"
"15","95.8333333333","yes","95.8333333333","23","3541","3541","#ffffff","no","practice","v;b;n;m","legacy","I have read and understood the information shown above","legacy","legacy","red","0","con","uniform","1","1","1","NA","0","0","0","0","0","20","20","20","20","20","0","0","5","0","20","20","0","0","NA","0","20","0","20","NA","0","20","20","12/06/16 12:07:21","The main experiment item","yes","v","W:\Sussex\Consciousness and control\Exp 1 - stroop suggestion and PCE\Methods\Palfi_script","no","mono","no","18","no","black","no","Ok","NA","no","Female","768","legacy","C:/Users/User/Dropbox/Sussex/Consciousness and control/Exp 1 - stroop suggestion and PCE/Methods/Palfi_script/laptop_size/subject-0.csv","legacy","Interactive Ising","3.0.2","0","v","v","space","NA","553","553","3150","NA","2","legacy","1024","2","48000","-16","experiment","0","even","NA","NA","58992","120648","53314","185026","184453","184991","185582","186570","NA","NA","120648","45195","185818","184488","NA","2063","NA","NA","135011","2063","187020","NA","123799","184450","185026","Stroop CI","23","84991","24","yes","1366","RED"
"3","96","yes","96","23","3422","3422","#ffffff","no","practice","v;b;n;m","legacy","I have read and understood the information shown above","legacy","legacy","red","0","inc","uniform","1","1","1","NA","0","0","0","0","0","21","21","21","21","21","0","0","5","0","21","21","0","0","NA","0","21","0","21","NA","0","21","21","12/06/16 12:07:21","The main experiment item","yes","v","W:\Sussex\Consciousness and control\Exp 1 - stroop suggestion and PCE\Methods\Palfi_script","no","mono","no","18","no","black","no","Ok","NA","no","Female","768","legacy","C:/Users/User/Dropbox/Sussex/Consciousness and control/Exp 1 - stroop suggestion and PCE/Methods/Palfi_script/laptop_size/subject-0.csv","legacy","Interactive Ising","3.0.2","0","v","v","space","NA","571","571","3150","NA","2","legacy","1024","2","48000","-16","experiment","0","even","NA","NA","58992","120648","53314","187767","187192","187732","188341","189329","NA","NA","120648","45195","188577","187228","NA","2063","NA","NA","135011","2063","189779","NA","123799","187190","187767","Stroop CI","24","85562","25","yes","1366","YELLOW"
"10","96.1538461538","yes","96.1538461538","23","3309","3309","#ffffff","no","practice","v;b;n;m","legacy","I have read and understood the information shown above","legacy","legacy","#ffef36","0","inc","uniform","1","1","1","NA","0","0","0","0","0","22","22","22","22","22","0","0","5","0","22","22","0","0","NA","0","22","0","22","NA","0","22","22","12/06/16 12:07:21","The main experiment item","yes","m","W:\Sussex\Consciousness and control\Exp 1 - stroop suggestion and PCE\Methods\Palfi_script","no","mono","no","18","no","black","no","Ok","NA","no","Female","768","legacy","C:/Users/User/Dropbox/Sussex/Consciousness and control/Exp 1 - stroop suggestion and PCE/Methods/Palfi_script/laptop_size/subject-0.csv","legacy","Interactive Ising","3.0.2","0","m","m","space","NA","496","496","3150","NA","2","legacy","1024","2","48000","-16","experiment","0","even","NA","NA","58992","120648","53314","190505","189932","190469","191004","191995","NA","NA","120648","45195","191242","189967","NA","2063","NA","NA","135011","2063","192445","NA","123799","189929","190504","Stroop CI","25","86058","26","yes","1366","RED"
"6","96.2962962963","yes","96.2962962963","23","3218","3218","#ffffff","no","practice","v;b;n;m","legacy","I have read and understood the information shown above","legacy","legacy","blue","0","inc","uniform","1","1","1","NA","0","0","0","0","0","23","23","23","23","23","0","0","5","0","23","23","0","0","NA","0","23","0","23","NA","0","23","23","12/06/16 12:07:21","The main experiment item","yes","b","W:\Sussex\Consciousness and control\Exp 1 - stroop suggestion and PCE\Methods\Palfi_script","no","mono","no","18","no","black","no","Ok","NA","no","Female","768","legacy","C:/Users/User/Dropbox/Sussex/Consciousness and control/Exp 1 - stroop suggestion and PCE/Methods/Palfi_script/laptop_size/subject-0.csv","legacy","Interactive Ising","3.0.2","0","b","b","space","NA","837","837","3150","NA","2","legacy","1024","2","48000","-16","experiment","0","even","NA","NA","58992","120648","53314","193205","192633","193170","194046","195036","NA","NA","120648","45195","194282","192668","NA","2063","NA","NA","135011","2063","195486","NA","123799","192631","193205","Stroop CI","26","86895","27","yes","1366","YELLOW"
"35","96.4285714286","yes","96.4285714286","23","3127","3127","#ffffff","no","practice","v;b;n;m","legacy","I have read and understood the information shown above","legacy","legacy","#ffef36","0","neutral","uniform","1","1","1","NA","0","0","0","0","0","24","24","24","24","24","0","0","5","0","24","24","0","0","NA","0","24","0","24","NA","0","24","24","12/06/16 12:07:21","The main experiment item","yes","m","W:\Sussex\Consciousness and control\Exp 1 - stroop suggestion and PCE\Methods\Palfi_script","no","mono","no","18","no","black","no","Ok","NA","no","Female","768","legacy","C:/Users/User/Dropbox/Sussex/Consciousness and control/Exp 1 - stroop suggestion and PCE/Methods/Palfi_script/laptop_size/subject-0.csv","legacy","Interactive Ising","3.0.2","0","m","m","space","NA","674","674","3150","NA","2","legacy","1024","2","48000","-16","experiment","0","even","NA","NA","58992","120648","53314","196246","195674","196211","196923","197911","NA","NA","120648","45195","197159","195709","NA","2063","NA","NA","135011","2063","198361","NA","123799","195671","196246","Stroop CI","27","87569","28","yes","1366","SHIP"
"1","96.5517241379","yes","96.5517241379","23","3042","3042","#ffffff","no","practice","v;b;n;m","legacy","I have read and understood the information shown above","legacy","legacy","red","0","inc","uniform","1","1","1","NA","0","0","0","0","0","25","25","25","25","25","0","0","5","0","25","25","0","0","NA","0","25","0","25","NA","0","25","25","12/06/16 12:07:21","The main experiment item","yes","v","W:\Sussex\Consciousness and control\Exp 1 - stroop suggestion and PCE\Methods\Palfi_script","no","mono","no","18","no","black","no","Ok","NA","no","Female","768","legacy","C:/Users/User/Dropbox/Sussex/Consciousness and control/Exp 1 - stroop suggestion and PCE/Methods/Palfi_script/laptop_size/subject-0.csv","legacy","Interactive Ising","3.0.2","0","v","v","space","NA","667","667","3150","NA","2","legacy","1024","2","48000","-16","experiment","0","even","NA","NA","58992","120648","53314","199106","198533","199071","199776","200768","NA","NA","120648","45195","200014","198568","NA","2063","NA","NA","135011","2063","201218","NA","123799","198531","199106","Stroop CI","28","88236","29","yes","1366","BLUE"
"30","96.6666666667","yes","96.6666666667","23","2963","2963","#ffffff","no","practice","v;b;n;m","legacy","I have read and understood the information shown above","legacy","legacy","blue","0","neutral","uniform","1","1","1","NA","0","0","0","0","0","26","26","26","26","26","0","0","5","0","26","26","0","0","NA","0","26","0","26","NA","0","26","26","12/06/16 12:07:21","The main experiment item","yes","b","W:\Sussex\Consciousness and control\Exp 1 - stroop suggestion and PCE\Methods\Palfi_script","no","mono","no","18","no","black","no","Ok","NA","no","Female","768","legacy","C:/Users/User/Dropbox/Sussex/Consciousness and control/Exp 1 - stroop suggestion and PCE/Methods/Palfi_script/laptop_size/subject-0.csv","legacy","Interactive Ising","3.0.2","0","b","b","space","NA","674","674","3150","NA","2","legacy","1024","2","48000","-16","experiment","0","even","NA","NA","58992","120648","53314","202015","201443","201980","202691","203681","NA","NA","120648","45195","202928","201478","NA","2063","NA","NA","135011","2063","204131","NA","123799","201441","202015","Stroop CI","29","88910","30","yes","1366","FLOWER"
"36","96.7741935484","yes","96.7741935484","23","2893","2893","#ffffff","no","practice","v;b;n;m","legacy","I have read and understood the information shown above","legacy","legacy","#ffef36","0","neutral","uniform","1","1","1","NA","0","0","0","0","0","27","27","27","27","27","0","0","5","0","27","27","0","0","NA","0","27","0","27","NA","0","27","27","12/06/16 12:07:21","The main experiment item","yes","m","W:\Sussex\Consciousness and control\Exp 1 - stroop suggestion and PCE\Methods\Palfi_script","no","mono","no","18","no","black","no","Ok","NA","no","Female","768","legacy","C:/Users/User/Dropbox/Sussex/Consciousness and control/Exp 1 - stroop suggestion and PCE/Methods/Palfi_script/laptop_size/subject-0.csv","legacy","Interactive Ising","3.0.2","0","m","m","space","NA","793","793","3150","NA","2","legacy","1024","2","48000","-16","experiment","0","even","NA","NA","58992","120648","53314","204854","204281","204819","205650","206638","NA","NA","120648","45195","205886","204317","NA","2063","NA","NA","135011","2063","207088","NA","123799","204279","204854","Stroop CI","30","89703","31","yes","1366","KNIFE"
"32","96.875","yes","96.875","23","2834","2834","#ffffff","no","practice","v;b;n;m","legacy","I have read and understood the information shown above","legacy","legacy","green","0","neutral","uniform","1","1","1","NA","0","0","0","0","0","28","28","28","28","28","0","0","5","0","28","28","0","0","NA","0","28","0","28","NA","0","28","28","12/06/16 12:07:21","The main experiment item","yes","n","W:\Sussex\Consciousness and control\Exp 1 - stroop suggestion and PCE\Methods\Palfi_script","no","mono","no","18","no","black","no","Ok","NA","no","Female","768","legacy","C:/Users/User/Dropbox/Sussex/Consciousness and control/Exp 1 - stroop suggestion and PCE/Methods/Palfi_script/laptop_size/subject-0.csv","legacy","Interactive Ising","3.0.2","0","n","n","space","NA","994","994","3150","NA","2","legacy","1024","2","48000","-16","experiment","0","even","NA","NA","58992","120648","53314","207847","207275","207812","208844","209833","NA","NA","120648","45195","209081","207310","NA","2063","NA","NA","135011","2063","210283","NA","123799","207273","207847","Stroop CI","31","90697","32","yes","1366","SHIP"
"19","96.9696969697","yes","96.9696969697","23","2762","2762","#ffffff","no","practice","v;b;n;m","legacy","I have read and understood the information shown above","legacy","legacy","green","0","con","uniform","1","1","1","NA","0","0","0","0","0","29","29","29","29","29","0","0","5","0","29","29","0","0","NA","0","29","0","29","NA","0","29","29","12/06/16 12:07:21","The main experiment item","yes","n","W:\Sussex\Consciousness and control\Exp 1 - stroop suggestion and PCE\Methods\Palfi_script","no","mono","no","18","no","black","no","Ok","NA","no","Female","768","legacy","C:/Users/User/Dropbox/Sussex/Consciousness and control/Exp 1 - stroop suggestion and PCE/Methods/Palfi_script/laptop_size/subject-0.csv","legacy","Interactive Ising","3.0.2","0","n","n","space","NA","449","449","3150","NA","2","legacy","1024","2","48000","-16","experiment","0","even","NA","NA","58992","120648","53314","210990","210418","210955","211442","212430","NA","NA","120648","45195","211678","210453","NA","2063","NA","NA","135011","2063","212880","NA","123799","210415","210990","Stroop CI","32","91146","33","yes","1366","GREEN"
"21","97.0588235294","yes","97.0588235294","23","2694","2694","#ffffff","no","practice","v;b;n;m","legacy","I have read and understood the information shown above","legacy","legacy","green","0","con","uniform","1","1","1","NA","0","0","0","0","0","30","30","30","30","30","0","0","5","0","30","30","0","0","NA","0","30","0","30","NA","0","30","30","12/06/16 12:07:21","The main experiment item","yes","n","W:\Sussex\Consciousness and control\Exp 1 - stroop suggestion and PCE\Methods\Palfi_script","no","mono","no","18","no","black","no","Ok","NA","no","Female","768","legacy","C:/Users/User/Dropbox/Sussex/Consciousness and control/Exp 1 - stroop suggestion and PCE/Methods/Palfi_script/laptop_size/subject-0.csv","legacy","Interactive Ising","3.0.2","0","n","n","space","NA","474","474","3150","NA","2","legacy","1024","2","48000","-16","experiment","0","even","NA","NA","58992","120648","53314","213650","213078","213615","214127","215115","NA","NA","120648","45195","214363","213113","NA","2063","NA","NA","135011","2063","215565","NA","123799","213075","213650","Stroop CI","33","91620","34","yes","1366","GREEN"
"8","94.2857142857","yes","94.2857142857","23","2641","2641","#ffffff","no","practice","v;b;n;m","legacy","I have read and understood the information shown above","legacy","legacy","green","0","inc","uniform","0","0","1","NA","0","0","0","0","0","31","31","31","31","31","0","0","5","0","31","31","0","0","NA","0","31","0","31","NA","0","31","31","12/06/16 12:07:21","The main experiment item","yes","n","W:\Sussex\Consciousness and control\Exp 1 - stroop suggestion and PCE\Methods\Palfi_script","no","mono","no","18","no","black","no","Ok","NA","no","Female","768","legacy","C:/Users/User/Dropbox/Sussex/Consciousness and control/Exp 1 - stroop suggestion and PCE/Methods/Palfi_script/laptop_size/subject-0.csv","legacy","Interactive Ising","3.0.2","0","b","b","space","NA","843","843","3150","NA","2","legacy","1024","2","48000","-16","experiment","0","even","NA","NA","58992","120648","53314","216314","215742","216279","217160","218148","NA","NA","120648","45195","214363","215777","NA","2063","NA","NA","217396","2063","218598","NA","123799","215740","216314","Stroop CI","33","92463","35","yes","1366","BLUE"
"7","94.4444444444","yes","94.4444444444","23","2599","2599","#ffffff","no","practice","v;b;n;m","legacy","I have read and understood the information shown above","legacy","legacy","green","0","inc","uniform","1","1","1","NA","0","0","0","0","0","32","32","32","32","32","0","0","5","0","32","32","0","0","NA","0","32","0","32","NA","0","32","32","12/06/16 12:07:21","The main experiment item","yes","n","W:\Sussex\Consciousness and control\Exp 1 - stroop suggestion and PCE\Methods\Palfi_script","no","mono","no","18","no","black","no","Ok","NA","no","Female","768","legacy","C:/Users/User/Dropbox/Sussex/Consciousness and control/Exp 1 - stroop suggestion and PCE/Methods/Palfi_script/laptop_size/subject-0.csv","legacy","Interactive Ising","3.0.2","0","n","n","space","NA","1122","1122","3150","NA","2","legacy","1024","2","48000","-16","experiment","0","even","NA","NA","58992","120648","53314","219348","218776","219313","220473","221461","NA","NA","120648","45195","220709","218811","NA","2063","NA","NA","217396","2063","221911","NA","123799","218774","219348","Stroop CI","34","93585","36","yes","1366","RED"
"18","94.5945945946","yes","94.5945945946","23","2558","2558","#ffffff","no","practice","v;b;n;m","legacy","I have read and understood the information shown above","legacy","legacy","blue","0","con","uniform","1","1","1","NA","0","0","0","0","0","33","33","33","33","33","0","0","5","0","33","33","0","0","NA","0","33","0","33","NA","0","33","33","12/06/16 12:07:21","The main experiment item","yes","b","W:\Sussex\Consciousness and control\Exp 1 - stroop suggestion and PCE\Methods\Palfi_script","no","mono","no","18","no","black","no","Ok","NA","no","Female","768","legacy","C:/Users/User/Dropbox/Sussex/Consciousness and control/Exp 1 - stroop suggestion and PCE/Methods/Palfi_script/laptop_size/subject-0.csv","legacy","Interactive Ising","3.0.2","0","b","b","space","NA","1095","1095","3150","NA","2","legacy","1024","2","48000","-16","experiment","0","even","NA","NA","58992","120648","53314","222639","222066","222604","223737","224727","NA","NA","120648","45195","223975","222102","NA","2063","NA","NA","217396","2063","225177","NA","123799","222064","222639","Stroop CI","35","94680","37","yes","1366","BLUE"
"23","94.7368421053","yes","94.7368421053","23","2511","2511","#ffffff","no","practice","v;b;n;m","legacy","I have read and understood the information shown above","legacy","legacy","#ffef36","0","con","uniform","1","1","1","NA","0","0","0","0","0","34","34","34","34","34","0","0","5","0","34","34","0","0","NA","0","34","0","34","NA","0","34","34","12/06/16 12:07:21","The main experiment item","yes","m","W:\Sussex\Consciousness and control\Exp 1 - stroop suggestion and PCE\Methods\Palfi_script","no","mono","no","18","no","black","no","Ok","NA","no","Female","768","legacy","C:/Users/User/Dropbox/Sussex/Consciousness and control/Exp 1 - stroop suggestion and PCE/Methods/Palfi_script/laptop_size/subject-0.csv","legacy","Interactive Ising","3.0.2","0","m","m","space","NA","743","743","3150","NA","2","legacy","1024","2","48000","-16","experiment","0","even","NA","NA","58992","120648","53314","225993","225421","225958","226739","227728","NA","NA","120648","45195","226976","225456","NA","2063","NA","NA","217396","2063","228179","NA","123799","225418","225993","Stroop CI","36","95423","38","yes","1366","YELLOW"
"27","94.8717948718","yes","94.8717948718","23","2463","2463","#ffffff","no","practice","v;b;n;m","legacy","I have read and understood the information shown above","legacy","legacy","red","0","neutral","uniform","1","1","1","NA","0","0","0","0","0","35","35","35","35","35","0","0","5","0","35","35","0","0","NA","0","35","0","35","NA","0","35","35","12/06/16 12:07:21","The main experiment item","yes","v","W:\Sussex\Consciousness and control\Exp 1 - stroop suggestion and PCE\Methods\Palfi_script","no","mono","no","18","no","black","no","Ok","NA","no","Female","768","legacy","C:/Users/User/Dropbox/Sussex/Consciousness and control/Exp 1 - stroop suggestion and PCE/Methods/Palfi_script/laptop_size/subject-0.csv","legacy","Interactive Ising","3.0.2","0","v","v","space","NA","661","661","3150","NA","2","legacy","1024","2","48000","-16","experiment","0","even","NA","NA","58992","120648","53314","228901","228329","228866","229566","230558","NA","NA","120648","45195","229803","228364","NA","2063","NA","NA","217396","2063","231008","NA","123799","228326","228901","Stroop CI","37","96084","39","yes","1366","FLOWER"
"70","95.1219512195","yes","95.1219512195","23","2518","2518","#ffffff","no","C","v;b;n;m","legacy","I have read and understood the information shown above","legacy","legacy","blue","0","con","uniform","1","1","1","NA","0","0","0","0","0","36","36","36","36","36","0","0","5","0","36","36","0","0","NA","0","36","0","36","NA","0","36","36","12/06/16 12:07:21","The main experiment item","yes","b","W:\Sussex\Consciousness and control\Exp 1 - stroop suggestion and PCE\Methods\Palfi_script","no","mono","no","18","no","black","no","Ok","NA","no","Female","768","legacy","C:/Users/User/Dropbox/Sussex/Consciousness and control/Exp 1 - stroop suggestion and PCE/Methods/Palfi_script/laptop_size/subject-0.csv","legacy","Interactive Ising","3.0.2","0","b","b","space","NA","709","709","6481","NA","2","legacy","1024","2","48000","-16","experiment","0","even","237631","NA","58992","120648","53314","238303","237729","238268","239015","240004","231149","NA","231149","45195","239251","237764","NA","2063","NA","NA","217396","2063","240454","NA","123799","237727","238303","Stroop CI","39","103274","41","yes","1366","BLUE"
"110","95.2380952381","yes","95.2380952381","23","2474","2474","#ffffff","no","C","v;b;n;m","legacy","I have read and understood the information shown above","legacy","legacy","#ffef36","0","con","uniform","1","1","1","NA","0","0","0","0","0","37","37","37","37","37","0","0","5","0","37","37","0","0","NA","0","37","0","37","NA","0","37","37","12/06/16 12:07:21","The main experiment item","yes","m","W:\Sussex\Consciousness and control\Exp 1 - stroop suggestion and PCE\Methods\Palfi_script","no","mono","no","18","no","black","no","Ok","NA","no","Female","768","legacy","C:/Users/User/Dropbox/Sussex/Consciousness and control/Exp 1 - stroop suggestion and PCE/Methods/Palfi_script/laptop_size/subject-0.csv","legacy","Interactive Ising","3.0.2","0","m","m","space","NA","665","665","6481","NA","2","legacy","1024","2","48000","-16","experiment","0","even","237631","NA","58992","120648","53314","241149","240577","241114","241817","242805","231149","NA","231149","45195","242053","240612","NA","2063","NA","NA","217396","2063","243255","NA","123799","240575","241149","Stroop CI","40","103939","42","yes","1366","YELLOW"
"98","95.3488372093","yes","95.3488372093","23","2432","2432","#ffffff","no","C","v;b;n;m","legacy","I have read and understood the information shown above","legacy","legacy","#ffef36","0","con","uniform","1","1","1","NA","0","0","0","0","0","38","38","38","38","38","0","0","5","0","38","38","0","0","NA","0","38","0","38","NA","0","38","38","12/06/16 12:07:21","The main experiment item","yes","m","W:\Sussex\Consciousness and control\Exp 1 - stroop suggestion and PCE\Methods\Palfi_script","no","mono","no","18","no","black","no","Ok","NA","no","Female","768","legacy","C:/Users/User/Dropbox/Sussex/Consciousness and control/Exp 1 - stroop suggestion and PCE/Methods/Palfi_script/laptop_size/subject-0.csv","legacy","Interactive Ising","3.0.2","0","m","m","space","NA","640","640","6481","NA","2","legacy","1024","2","48000","-16","experiment","0","even","237631","NA","58992","120648","53314","244004","243429","243969","244647","245637","231149","NA","231149","45195","244885","243465","NA","2063","NA","NA","217396","2063","246087","NA","123799","243427","244004","Stroop CI","41","104579","43","yes","1366","YELLOW"
"64","95.4545454545","yes","95.4545454545","23","2392","2392","#ffffff","no","C","v;b;n;m","legacy","I have read and understood the information shown above","legacy","legacy","blue","0","con","uniform","1","1","1","NA","0","0","0","0","0","39","39","39","39","39","0","0","5","0","39","39","0","0","NA","0","39","0","39","NA","0","39","39","12/06/16 12:07:21","The main experiment item","yes","b","W:\Sussex\Consciousness and control\Exp 1 - stroop suggestion and PCE\Methods\Palfi_script","no","mono","no","18","no","black","no","Ok","NA","no","Female","768","legacy","C:/Users/User/Dropbox/Sussex/Consciousness and control/Exp 1 - stroop suggestion and PCE/Methods/Palfi_script/laptop_size/subject-0.csv","legacy","Interactive Ising","3.0.2","0","b","b","space","NA","676","676","6481","NA","2","legacy","1024","2","48000","-16","experiment","0","even","237631","NA","58992","120648","53314","246840","246267","246805","247519","248507","231149","NA","231149","45195","247755","246302","NA","2063","NA","NA","217396","2063","248957","NA","123799","246264","246840","Stroop CI","42","105255","44","yes","1366","BLUE"
"90","95.5555555556","yes","95.5555555556","23","2356","2356","#ffffff","no","C","v;b;n;m","legacy","I have read and understood the information shown above","legacy","legacy","green","0","con","uniform","1","1","1","NA","0","0","0","0","0","40","40","40","40","40","0","0","5","0","40","40","0","0","NA","0","40","0","40","NA","0","40","40","12/06/16 12:07:21","The main experiment item","yes","n","W:\Sussex\Consciousness and control\Exp 1 - stroop suggestion and PCE\Methods\Palfi_script","no","mono","no","18","no","black","no","Ok","NA","no","Female","768","legacy","C:/Users/User/Dropbox/Sussex/Consciousness and control/Exp 1 - stroop suggestion and PCE/Methods/Palfi_script/laptop_size/subject-0.csv","legacy","Interactive Ising","3.0.2","0","n","n","space","NA","788","788","6481","NA","2","legacy","1024","2","48000","-16","experiment","0","even","237631","NA","58992","120648","53314","249721","249148","249686","250513","251502","231149","NA","231149","45195","250750","249184","NA","2063","NA","NA","217396","2063","251952","NA","123799","249146","249721","Stroop CI","43","106043","45","yes","1366","GREEN"
"42","95.652173913","yes","95.652173913","23","2315","2315","#ffffff","no","C","v;b;n;m","legacy","I have read and understood the information shown above","legacy","legacy","red","0","con","uniform","1","1","1","NA","0","0","0","0","0","41","41","41","41","41","0","0","5","0","41","41","0","0","NA","0","41","0","41","NA","0","41","41","12/06/16 12:07:21","The main experiment item","yes","v","W:\Sussex\Consciousness and control\Exp 1 - stroop suggestion and PCE\Methods\Palfi_script","no","mono","no","18","no","black","no","Ok","NA","no","Female","768","legacy","C:/Users/User/Dropbox/Sussex/Consciousness and control/Exp 1 - stroop suggestion and PCE/Methods/Palfi_script/laptop_size/subject-0.csv","legacy","Interactive Ising","3.0.2","0","v","v","space","NA","487","487","6481","NA","2","legacy","1024","2","48000","-16","experiment","0","even","237631","NA","58992","120648","53314","252699","252127","252664","253189","254179","231149","NA","231149","45195","253425","252162","NA","2063","NA","NA","217396","2063","254629","NA","123799","252125","252699","Stroop CI","44","106530","46","yes","1366","RED"
"59","95.7446808511","yes","95.7446808511","23","2280","2280","#ffffff","no","C","v;b;n;m","legacy","I have read and understood the information shown above","legacy","legacy","blue","0","con","uniform","1","1","1","NA","0","0","0","0","0","42","42","42","42","42","0","0","5","0","42","42","0","0","NA","0","42","0","42","NA","0","42","42","12/06/16 12:07:21","The main experiment item","yes","b","W:\Sussex\Consciousness and control\Exp 1 - stroop suggestion and PCE\Methods\Palfi_script","no","mono","no","18","no","black","no","Ok","NA","no","Female","768","legacy","C:/Users/User/Dropbox/Sussex/Consciousness and control/Exp 1 - stroop suggestion and PCE/Methods/Palfi_script/laptop_size/subject-0.csv","legacy","Interactive Ising","3.0.2","0","b","b","space","NA","634","634","6481","NA","2","legacy","1024","2","48000","-16","experiment","0","even","237631","NA","58992","120648","53314","255407","254835","255372","256044","257035","231149","NA","231149","45195","256280","254870","NA","2063","NA","NA","217396","2063","257485","NA","123799","254832","255407","Stroop CI","45","107164","47","yes","1366","BLUE"
"82","95.8333333333","yes","95.8333333333","23","2243","2243","#ffffff","no","C","v;b;n;m","legacy","I have read and understood the information shown above","legacy","legacy","green","0","con","uniform","1","1","1","NA","0","0","0","0","0","43","43","43","43","43","0","0","5","0","43","43","0","0","NA","0","43","0","43","NA","0","43","43","12/06/16 12:07:21","The main experiment item","yes","n","W:\Sussex\Consciousness and control\Exp 1 - stroop suggestion and PCE\Methods\Palfi_script","no","mono","no","18","no","black","no","Ok","NA","no","Female","768","legacy","C:/Users/User/Dropbox/Sussex/Consciousness and control/Exp 1 - stroop suggestion and PCE/Methods/Palfi_script/laptop_size/subject-0.csv","legacy","Interactive Ising","3.0.2","0","n","n","space","NA","538","538","6481","NA","2","legacy","1024","2","48000","-16","experiment","0","even","237631","NA","58992","120648","53314","258192","257620","258157","258734","259723","231149","NA","231149","45195","258971","257655","NA","2063","NA","NA","217396","2063","260173","NA","123799","257617","258192","Stroop CI","46","107702","48","yes","1366","GREEN"
"48","95.9183673469","yes","95.9183673469","23","2213","2213","#ffffff","no","C","v;b;n;m","legacy","I have read and understood the information shown above","legacy","legacy","red","0","con","uniform","1","1","1","NA","0","0","0","0","0","44","44","44","44","44","0","0","5","0","44","44","0","0","NA","0","44","0","44","NA","0","44","44","12/06/16 12:07:21","The main experiment item","yes","v","W:\Sussex\Consciousness and control\Exp 1 - stroop suggestion and PCE\Methods\Palfi_script","no","mono","no","18","no","black","no","Ok","NA","no","Female","768","legacy","C:/Users/User/Dropbox/Sussex/Consciousness and control/Exp 1 - stroop suggestion and PCE/Methods/Palfi_script/laptop_size/subject-0.csv","legacy","Interactive Ising","3.0.2","0","v","v","space","NA","745","745","6481","NA","2","legacy","1024","2","48000","-16","experiment","0","even","237631","NA","58992","120648","53314","260923","260351","260888","261671","262660","231149","NA","231149","45195","261907","260386","NA","2063","NA","NA","217396","2063","263110","NA","123799","260349","260923","Stroop CI","47","108447","49","yes","1366","RED"
"21","96","yes","96","23","2182","2182","#ffffff","no","C","v;b;n;m","legacy","I have read and understood the information shown above","legacy","legacy","green","0","neutral","uniform","1","1","1","NA","0","0","0","0","0","45","45","45","45","45","0","0","5","0","45","45","0","0","NA","0","45","0","45","NA","0","45","45","12/06/16 12:07:21","The main experiment item","yes","n","W:\Sussex\Consciousness and control\Exp 1 - stroop suggestion and PCE\Methods\Palfi_script","no","mono","no","18","no","black","no","Ok","NA","no","Female","768","legacy","C:/Users/User/Dropbox/Sussex/Consciousness and control/Exp 1 - stroop suggestion and PCE/Methods/Palfi_script/laptop_size/subject-0.csv","legacy","Interactive Ising","3.0.2","0","n","n","space","NA","697","697","6481","NA","2","legacy","1024","2","48000","-16","experiment","0","even","237631","NA","58992","120648","53314","263816","263244","263781","264516","265508","231149","NA","231149","45195","264754","263279","NA","2063","NA","NA","217396","2063","265958","NA","123799","263242","263816","Stroop CI","48","109144","50","yes","1366","FLOWER"
"47","96.0784313725","yes","96.0784313725","23","2152","2152","#ffffff","no","C","v;b;n;m","legacy","I have read and understood the information shown above","legacy","legacy","red","0","con","uniform","1","1","1","NA","0","0","0","0","0","46","46","46","46","46","0","0","5","0","46","46","0","0","NA","0","46","0","46","NA","0","46","46","12/06/16 12:07:21","The main experiment item","yes","v","W:\Sussex\Consciousness and control\Exp 1 - stroop suggestion and PCE\Methods\Palfi_script","no","mono","no","18","no","black","no","Ok","NA","no","Female","768","legacy","C:/Users/User/Dropbox/Sussex/Consciousness and control/Exp 1 - stroop suggestion and PCE/Methods/Palfi_script/laptop_size/subject-0.csv","legacy","Interactive Ising","3.0.2","0","v","v","space","NA","619","619","6481","NA","2","legacy","1024","2","48000","-16","experiment","0","even","237631","NA","58992","120648","53314","266715","266143","266680","267337","268327","231149","NA","231149","45195","267575","266178","NA","2063","NA","NA","217396","2063","268777","NA","123799","266141","266715","Stroop CI","49","109763","51","yes","1366","RED"
"10","96.1538461538","yes","96.1538461538","23","2136","2136","#ffffff","no","C","v;b;n;m","legacy","I have read and understood the information shown above","legacy","legacy","blue","0","inc","uniform","1","1","1","NA","0","0","0","0","0","47","47","47","47","47","0","0","5","0","47","47","0","0","NA","0","47","0","47","NA","0","47","47","12/06/16 12:07:21","The main experiment item","yes","b","W:\Sussex\Consciousness and control\Exp 1 - stroop suggestion and PCE\Methods\Palfi_script","no","mono","no","18","no","black","no","Ok","NA","no","Female","768","legacy","C:/Users/User/Dropbox/Sussex/Consciousness and control/Exp 1 - stroop suggestion and PCE/Methods/Palfi_script/laptop_size/subject-0.csv","legacy","Interactive Ising","3.0.2","0","b","b","space","NA","1311","1311","6481","NA","2","legacy","1024","2","48000","-16","experiment","0","even","237631","NA","58992","120648","53314","269562","268990","269527","270875","271866","231149","NA","231149","45195","271114","269025","NA","2063","NA","NA","217396","2063","272316","NA","123799","268988","269562","Stroop CI","50","111074","52","yes","1366","GREEN"
"15","96.2264150943","yes","96.2264150943","23","2107","2107","#ffffff","no","C","v;b;n;m","legacy","I have read and understood the information shown above","legacy","legacy","red","0","neutral","uniform","1","1","1","NA","0","0","0","0","0","48","48","48","48","48","0","0","5","0","48","48","0","0","NA","0","48","0","48","NA","0","48","48","12/06/16 12:07:21","The main experiment item","yes","v","W:\Sussex\Consciousness and control\Exp 1 - stroop suggestion and PCE\Methods\Palfi_script","no","mono","no","18","no","black","no","Ok","NA","no","Female","768","legacy","C:/Users/User/Dropbox/Sussex/Consciousness and control/Exp 1 - stroop suggestion and PCE/Methods/Palfi_script/laptop_size/subject-0.csv","legacy","Interactive Ising","3.0.2","0","v","v","space","NA","627","627","6481","NA","2","legacy","1024","2","48000","-16","experiment","0","even","237631","NA","58992","120648","53314","273074","272502","273039","273704","274693","231149","NA","231149","45195","273941","272537","NA","2063","NA","NA","217396","2063","275143","NA","123799","272500","273074","Stroop CI","51","111701","53","yes","1366","FLOWER"
"30","96.2962962963","yes","96.2962962963","23","2079","2079","#ffffff","no","C","v;b;n;m","legacy","I have read and understood the information shown above","legacy","legacy","red","0","con","uniform","1","1","1","NA","0","0","0","0","0","49","49","49","49","49","0","0","5","0","49","49","0","0","NA","0","49","0","49","NA","0","49","49","12/06/16 12:07:21","The main experiment item","yes","v","W:\Sussex\Consciousness and control\Exp 1 - stroop suggestion and PCE\Methods\Palfi_script","no","mono","no","18","no","black","no","Ok","NA","no","Female","768","legacy","C:/Users/User/Dropbox/Sussex/Consciousness and control/Exp 1 - stroop suggestion and PCE/Methods/Palfi_script/laptop_size/subject-0.csv","legacy","Interactive Ising","3.0.2","0","v","v","space","NA","589","589","6481","NA","2","legacy","1024","2","48000","-16","experiment","0","even","237631","NA","58992","120648","53314","275885","275313","275850","276477","277467","231149","NA","231149","45195","276715","275348","NA","2063","NA","NA","217396","2063","277917","NA","123799","275311","275885","Stroop CI","52","112290","54","yes","1366","RED"
"108","96.3636363636","yes","96.3636363636","23","2053","2053","#ffffff","no","C","v;b;n;m","legacy","I have read and understood the information shown above","legacy","legacy","#ffef36","0","con","uniform","1","1","1","NA","0","0","0","0","0","50","50","50","50","50","0","0","5","0","50","50","0","0","NA","0","50","0","50","NA","0","50","50","12/06/16 12:07:21","The main experiment item","yes","m","W:\Sussex\Consciousness and control\Exp 1 - stroop suggestion and PCE\Methods\Palfi_script","no","mono","no","18","no","black","no","Ok","NA","no","Female","768","legacy","C:/Users/User/Dropbox/Sussex/Consciousness and control/Exp 1 - stroop suggestion and PCE/Methods/Palfi_script/laptop_size/subject-0.csv","legacy","Interactive Ising","3.0.2","0","m","m","space","NA","627","627","6481","NA","2","legacy","1024","2","48000","-16","experiment","0","even","237631","NA","58992","120648","53314","278665","278093","278630","279295","280285","231149","NA","231149","45195","279532","278128","NA","2063","NA","NA","217396","2063","280735","NA","123799","278091","278665","Stroop CI","53","112917","55","yes","1366","YELLOW"
"58","96.4285714286","yes","96.4285714286","23","2029","2029","#ffffff","no","C","v;b;n;m","legacy","I have read and understood the information shown above","legacy","legacy","blue","0","con","uniform","1","1","1","NA","0","0","0","0","0","51","51","51","51","51","0","0","5","0","51","51","0","0","NA","0","51","0","51","NA","0","51","51","12/06/16 12:07:21","The main experiment item","yes","b","W:\Sussex\Consciousness and control\Exp 1 - stroop suggestion and PCE\Methods\Palfi_script","no","mono","no","18","no","black","no","Ok","NA","no","Female","768","legacy","C:/Users/User/Dropbox/Sussex/Consciousness and control/Exp 1 - stroop suggestion and PCE/Methods/Palfi_script/laptop_size/subject-0.csv","legacy","Interactive Ising","3.0.2","0","b","b","space","NA","740","740","6481","NA","2","legacy","1024","2","48000","-16","experiment","0","even","237631","NA","58992","120648","53314","281428","280856","281393","282171","283163","231149","NA","231149","45195","282409","280891","NA","2063","NA","NA","217396","2063","283613","NA","123799","280853","281428","Stroop CI","54","113657","56","yes","1366","BLUE"
"99","96.4912280702","yes","96.4912280702","23","2003","2003","#ffffff","no","C","v;b;n;m","legacy","I have read and understood the information shown above","legacy","legacy","#ffef36","0","con","uniform","1","1","1","NA","0","0","0","0","0","52","52","52","52","52","0","0","5","0","52","52","0","0","NA","0","52","0","52","NA","0","52","52","12/06/16 12:07:21","The main experiment item","yes","m","W:\Sussex\Consciousness and control\Exp 1 - stroop suggestion and PCE\Methods\Palfi_script","no","mono","no","18","no","black","no","Ok","NA","no","Female","768","legacy","C:/Users/User/Dropbox/Sussex/Consciousness and control/Exp 1 - stroop suggestion and PCE/Methods/Palfi_script/laptop_size/subject-0.csv","legacy","Interactive Ising","3.0.2","0","m","m","space","NA","551","551","6481","NA","2","legacy","1024","2","48000","-16","experiment","0","even","237631","NA","58992","120648","53314","284368","283796","284333","284922","285912","231149","NA","231149","45195","285160","283831","NA","2063","NA","NA","217396","2063","286362","NA","123799","283794","284368","Stroop CI","55","114208","57","yes","1366","YELLOW"
"68","96.5517241379","yes","96.5517241379","23","1980","1980","#ffffff","no","C","v;b;n;m","legacy","I have read and understood the information shown above","legacy","legacy","blue","0","con","uniform","1","1","1","NA","0","0","0","0","0","53","53","53","53","53","0","0","5","0","53","53","0","0","NA","0","53","0","53","NA","0","53","53","12/06/16 12:07:21","The main experiment item","yes","b","W:\Sussex\Consciousness and control\Exp 1 - stroop suggestion and PCE\Methods\Palfi_script","no","mono","no","18","no","black","no","Ok","NA","no","Female","768","legacy","C:/Users/User/Dropbox/Sussex/Consciousness and control/Exp 1 - stroop suggestion and PCE/Methods/Palfi_script/laptop_size/subject-0.csv","legacy","Interactive Ising","3.0.2","0","b","b","space","NA","668","668","6481","NA","2","legacy","1024","2","48000","-16","experiment","0","even","237631","NA","58992","120648","53314","287105","286533","287070","287776","288764","231149","NA","231149","45195","288012","286568","NA","2063","NA","NA","217396","2063","289214","NA","123799","286531","287105","Stroop CI","56","114876","58","yes","1366","BLUE"
"84","96.6101694915","yes","96.6101694915","23","1956","1956","#ffffff","no","C","v;b;n;m","legacy","I have read and understood the information shown above","legacy","legacy","green","0","con","uniform","1","1","1","NA","0","0","0","0","0","54","54","54","54","54","0","0","5","0","54","54","0","0","NA","0","54","0","54","NA","0","54","54","12/06/16 12:07:21","The main experiment item","yes","n","W:\Sussex\Consciousness and control\Exp 1 - stroop suggestion and PCE\Methods\Palfi_script","no","mono","no","18","no","black","no","Ok","NA","no","Female","768","legacy","C:/Users/User/Dropbox/Sussex/Consciousness and control/Exp 1 - stroop suggestion and PCE/Methods/Palfi_script/laptop_size/subject-0.csv","legacy","Interactive Ising","3.0.2","0","n","n","space","NA","545","545","6481","NA","2","legacy","1024","2","48000","-16","experiment","0","even","237631","NA","58992","120648","53314","289975","289403","289940","290523","291513","231149","NA","231149","45195","290759","289438","NA","2063","NA","NA","217396","2063","291963","NA","123799","289401","289975","Stroop CI","57","115421","59","yes","1366","GREEN"
"40","96.6666666667","yes","96.6666666667","23","1933","1933","#ffffff","no","C","v;b;n;m","legacy","I have read and understood the information shown above","legacy","legacy","red","0","con","uniform","1","1","1","NA","0","0","0","0","0","55","55","55","55","55","0","0","5","0","55","55","0","0","NA","0","55","0","55","NA","0","55","55","12/06/16 12:07:21","The main experiment item","yes","v","W:\Sussex\Consciousness and control\Exp 1 - stroop suggestion and PCE\Methods\Palfi_script","no","mono","no","18","no","black","no","Ok","NA","no","Female","768","legacy","C:/Users/User/Dropbox/Sussex/Consciousness and control/Exp 1 - stroop suggestion and PCE/Methods/Palfi_script/laptop_size/subject-0.csv","legacy","Interactive Ising","3.0.2","0","v","v","space","NA","571","571","6481","NA","2","legacy","1024","2","48000","-16","experiment","0","even","237631","NA","58992","120648","53314","292737","292165","292702","293311","294299","231149","NA","231149","45195","293547","292200","NA","2063","NA","NA","217396","2063","294749","NA","123799","292163","292737","Stroop CI","58","115992","60","yes","1366","RED"
"53","96.7213114754","yes","96.7213114754","23","1908","1908","#ffffff","no","C","v;b;n;m","legacy","I have read and understood the information shown above","legacy","legacy","blue","0","con","uniform","1","1","1","NA","0","0","0","0","0","56","56","56","56","56","0","0","5","0","56","56","0","0","NA","0","56","0","56","NA","0","56","56","12/06/16 12:07:21","The main experiment item","yes","b","W:\Sussex\Consciousness and control\Exp 1 - stroop suggestion and PCE\Methods\Palfi_script","no","mono","no","18","no","black","no","Ok","NA","no","Female","768","legacy","C:/Users/User/Dropbox/Sussex/Consciousness and control/Exp 1 - stroop suggestion and PCE/Methods/Palfi_script/laptop_size/subject-0.csv","legacy","Interactive Ising","3.0.2","0","b","b","space","NA","456","456","6481","NA","2","legacy","1024","2","48000","-16","experiment","0","even","237631","NA","58992","120648","53314","295460","294887","295425","295919","296907","231149","NA","231149","45195","296155","294923","NA","2063","NA","NA","217396","2063","297357","NA","123799","294885","295460","Stroop CI","59","116448","61","yes","1366","BLUE"
"44","96.7741935484","yes","96.7741935484","23","1886","1886","#ffffff","no","C","v;b;n;m","legacy","I have read and understood the information shown above","legacy","legacy","red","0","con","uniform","1","1","1","NA","0","0","0","0","0","57","57","57","57","57","0","0","5","0","57","57","0","0","NA","0","57","0","57","NA","0","57","57","12/06/16 12:07:21","The main experiment item","yes","v","W:\Sussex\Consciousness and control\Exp 1 - stroop suggestion and PCE\Methods\Palfi_script","no","mono","no","18","no","black","no","Ok","NA","no","Female","768","legacy","C:/Users/User/Dropbox/Sussex/Consciousness and control/Exp 1 - stroop suggestion and PCE/Methods/Palfi_script/laptop_size/subject-0.csv","legacy","Interactive Ising","3.0.2","0","v","v","space","NA","527","527","6481","NA","2","legacy","1024","2","48000","-16","experiment","0","even","237631","NA","58992","120648","53314","298129","297556","298094","298658","299650","231149","NA","231149","45195","298897","297591","NA","2063","NA","NA","217396","2063","300100","NA","123799","297554","298129","Stroop CI","60","116975","62","yes","1366","RED"
"8","96.8253968254","yes","96.8253968254","23","1868","1868","#ffffff","no","C","v;b;n;m","legacy","I have read and understood the information shown above","legacy","legacy","blue","0","inc","uniform","1","1","1","NA","0","0","0","0","0","58","58","58","58","58","0","0","5","0","58","58","0","0","NA","0","58","0","58","NA","0","58","58","12/06/16 12:07:21","The main experiment item","yes","b","W:\Sussex\Consciousness and control\Exp 1 - stroop suggestion and PCE\Methods\Palfi_script","no","mono","no","18","no","black","no","Ok","NA","no","Female","768","legacy","C:/Users/User/Dropbox/Sussex/Consciousness and control/Exp 1 - stroop suggestion and PCE/Methods/Palfi_script/laptop_size/subject-0.csv","legacy","Interactive Ising","3.0.2","0","b","b","space","NA","723","723","6481","NA","2","legacy","1024","2","48000","-16","experiment","0","even","237631","NA","58992","120648","53314","300876","300303","300841","301601","302592","231149","NA","231149","45195","301839","300339","NA","2063","NA","NA","217396","2063","303042","NA","123799","300301","300876","Stroop CI","61","117698","63","yes","1366","RED"
"96","96.875","yes","96.875","23","1850","1850","#ffffff","no","C","v;b;n;m","legacy","I have read and understood the information shown above","legacy","legacy","green","0","con","uniform","1","1","1","NA","0","0","0","0","0","59","59","59","59","59","0","0","5","0","59","59","0","0","NA","0","59","0","59","NA","0","59","59","12/06/16 12:07:21","The main experiment item","yes","n","W:\Sussex\Consciousness and control\Exp 1 - stroop suggestion and PCE\Methods\Palfi_script","no","mono","no","18","no","black","no","Ok","NA","no","Female","768","legacy","C:/Users/User/Dropbox/Sussex/Consciousness and control/Exp 1 - stroop suggestion and PCE/Methods/Palfi_script/laptop_size/subject-0.csv","legacy","Interactive Ising","3.0.2","0","n","n","space","NA","720","720","6481","NA","2","legacy","1024","2","48000","-16","experiment","0","even","237631","NA","58992","120648","53314","303807","303234","303771","304530","305518","231149","NA","231149","45195","304766","303269","NA","2063","NA","NA","217396","2063","305968","NA","123799","303232","303806","Stroop CI","62","118418","64","yes","1366","GREEN"
"95","96.9230769231","yes","96.9230769231","23","1837","1837","#ffffff","no","C","v;b;n;m","legacy","I have read and understood the information shown above","legacy","legacy","green","0","con","uniform","1","1","1","NA","0","0","0","0","0","60","60","60","60","60","0","0","5","0","60","60","0","0","NA","0","60","0","60","NA","0","60","60","12/06/16 12:07:21","The main experiment item","yes","n","W:\Sussex\Consciousness and control\Exp 1 - stroop suggestion and PCE\Methods\Palfi_script","no","mono","no","18","no","black","no","Ok","NA","no","Female","768","legacy","C:/Users/User/Dropbox/Sussex/Consciousness and control/Exp 1 - stroop suggestion and PCE/Methods/Palfi_script/laptop_size/subject-0.csv","legacy","Interactive Ising","3.0.2","0","n","n","space","NA","993","993","6481","NA","2","legacy","1024","2","48000","-16","experiment","0","even","237631","NA","58992","120648","53314","306690","306116","306654","307686","308677","231149","NA","231149","45195","307924","306152","NA","2063","NA","NA","217396","2063","309127","NA","123799","306114","306690","Stroop CI","63","119411","65","yes","1366","GREEN"
"120","96.9696969697","yes","96.9696969697","23","1820","1820","#ffffff","no","C","v;b;n;m","legacy","I have read and understood the information shown above","legacy","legacy","#ffef36","0","con","uniform","1","1","1","NA","0","0","0","0","0","61","61","61","61","61","0","0","5","0","61","61","0","0","NA","0","61","0","61","NA","0","61","61","12/06/16 12:07:21","The main experiment item","yes","m","W:\Sussex\Consciousness and control\Exp 1 - stroop suggestion and PCE\Methods\Palfi_script","no","mono","no","18","no","black","no","Ok","NA","no","Female","768","legacy","C:/Users/User/Dropbox/Sussex/Consciousness and control/Exp 1 - stroop suggestion and PCE/Methods/Palfi_script/laptop_size/subject-0.csv","legacy","Interactive Ising","3.0.2","0","m","m","space","NA","768","768","6481","NA","2","legacy","1024","2","48000","-16","experiment","0","even","237631","NA","58992","120648","53314","309872","309300","309837","310644","311636","231149","NA","231149","45195","310882","309335","NA","2063","NA","NA","217396","2063","312086","NA","123799","309298","309872","Stroop CI","64","120179","66","yes","1366","YELLOW"
"34","97.0149253731","yes","97.0149253731","23","1801","1801","#ffffff","no","C","v;b;n;m","legacy","I have read and understood the information shown above","legacy","legacy","red","0","con","uniform","1","1","1","NA","0","0","0","0","0","62","62","62","62","62","0","0","5","0","62","62","0","0","NA","0","62","0","62","NA","0","62","62","12/06/16 12:07:21","The main experiment item","yes","v","W:\Sussex\Consciousness and control\Exp 1 - stroop suggestion and PCE\Methods\Palfi_script","no","mono","no","18","no","black","no","Ok","NA","no","Female","768","legacy","C:/Users/User/Dropbox/Sussex/Consciousness and control/Exp 1 - stroop suggestion and PCE/Methods/Palfi_script/laptop_size/subject-0.csv","legacy","Interactive Ising","3.0.2","0","v","v","space","NA","542","542","6481","NA","2","legacy","1024","2","48000","-16","experiment","0","even","237631","NA","58992","120648","53314","312808","312236","312773","313352","314342","231149","NA","231149","45195","313588","312271","NA","2063","NA","NA","217396","2063","314793","NA","123799","312233","312808","Stroop CI","65","120721","67","yes","1366","RED"
"118","97.0588235294","yes","97.0588235294","23","1784","1784","#ffffff","no","C","v;b;n;m","legacy","I have read and understood the information shown above","legacy","legacy","#ffef36","0","con","uniform","1","1","1","NA","0","0","0","0","0","63","63","63","63","63","0","0","5","0","63","63","0","0","NA","0","63","0","63","NA","0","63","63","12/06/16 12:07:21","The main experiment item","yes","m","W:\Sussex\Consciousness and control\Exp 1 - stroop suggestion and PCE\Methods\Palfi_script","no","mono","no","18","no","black","no","Ok","NA","no","Female","768","legacy","C:/Users/User/Dropbox/Sussex/Consciousness and control/Exp 1 - stroop suggestion and PCE/Methods/Palfi_script/laptop_size/subject-0.csv","legacy","Interactive Ising","3.0.2","0","m","m","space","NA","635","635","6481","NA","2","legacy","1024","2","48000","-16","experiment","0","even","237631","NA","58992","120648","53314","315543","314971","315508","316181","317169","231149","NA","231149","45195","316417","315006","NA","2063","NA","NA","217396","2063","317619","NA","123799","314969","315543","Stroop CI","66","121356","68","yes","1366","YELLOW"
"37","97.1014492754","yes","97.1014492754","23","1766","1766","#ffffff","no","C","v;b;n;m","legacy","I have read and understood the information shown above","legacy","legacy","red","0","con","uniform","1","1","1","NA","0","0","0","0","0","64","64","64","64","64","0","0","5","0","64","64","0","0","NA","0","64","0","64","NA","0","64","64","12/06/16 12:07:21","The main experiment item","yes","v","W:\Sussex\Consciousness and control\Exp 1 - stroop suggestion and PCE\Methods\Palfi_script","no","mono","no","18","no","black","no","Ok","NA","no","Female","768","legacy","C:/Users/User/Dropbox/Sussex/Consciousness and control/Exp 1 - stroop suggestion and PCE/Methods/Palfi_script/laptop_size/subject-0.csv","legacy","Interactive Ising","3.0.2","0","v","v","space","NA","521","521","6481","NA","2","legacy","1024","2","48000","-16","experiment","0","even","237631","NA","58992","120648","53314","318501","317928","318466","319026","320015","231149","NA","231149","45195","319263","317964","NA","2063","NA","NA","217396","2063","320465","NA","123799","317926","318501","Stroop CI","67","121877","69","yes","1366","RED"
"81","95.7142857143","yes","95.7142857143","23","1751","1751","#ffffff","no","C","v;b;n;m","legacy","I have read and understood the information shown above","legacy","legacy","green","0","con","uniform","0","0","1","NA","0","0","0","0","0","65","65","65","65","65","0","0","5","0","65","65","0","0","NA","0","65","0","65","NA","0","65","65","12/06/16 12:07:21","The main experiment item","yes","n","W:\Sussex\Consciousness and control\Exp 1 - stroop suggestion and PCE\Methods\Palfi_script","no","mono","no","18","no","black","no","Ok","NA","no","Female","768","legacy","C:/Users/User/Dropbox/Sussex/Consciousness and control/Exp 1 - stroop suggestion and PCE/Methods/Palfi_script/laptop_size/subject-0.csv","legacy","Interactive Ising","3.0.2","0","m","m","space","NA","761","761","6481","NA","2","legacy","1024","2","48000","-16","experiment","0","even","237631","NA","58992","120648","53314","321210","320638","321175","321974","322962","231149","NA","231149","45195","319263","320673","NA","2063","NA","NA","322210","2063","323412","NA","123799","320635","321210","Stroop CI","67","122638","70","yes","1366","GREEN"
"78","95.7746478873","yes","95.7746478873","23","1748","1748","#ffffff","no","C","v;b;n;m","legacy","I have read and understood the information shown above","legacy","legacy","green","0","con","uniform","1","1","1","NA","0","0","0","0","0","66","66","66","66","66","0","0","5","0","66","66","0","0","NA","0","66","0","66","NA","0","66","66","12/06/16 12:07:21","The main experiment item","yes","n","W:\Sussex\Consciousness and control\Exp 1 - stroop suggestion and PCE\Methods\Palfi_script","no","mono","no","18","no","black","no","Ok","NA","no","Female","768","legacy","C:/Users/User/Dropbox/Sussex/Consciousness and control/Exp 1 - stroop suggestion and PCE/Methods/Palfi_script/laptop_size/subject-0.csv","legacy","Interactive Ising","3.0.2","0","n","n","space","NA","1498","1498","6481","NA","2","legacy","1024","2","48000","-16","experiment","0","even","237631","NA","58992","120648","53314","324171","323598","324135","325672","326661","231149","NA","231149","45195","325909","323633","NA","2063","NA","NA","322210","2063","327111","NA","123799","323596","324170","Stroop CI","68","124136","71","yes","1366","GREEN"
"83","95.8333333333","yes","95.8333333333","23","1732","1732","#ffffff","no","C","v;b;n;m","legacy","I have read and understood the information shown above","legacy","legacy","green","0","con","uniform","1","1","1","NA","0","0","0","0","0","67","67","67","67","67","0","0","5","0","67","67","0","0","NA","0","67","0","67","NA","0","67","67","12/06/16 12:07:21","The main experiment item","yes","n","W:\Sussex\Consciousness and control\Exp 1 - stroop suggestion and PCE\Methods\Palfi_script","no","mono","no","18","no","black","no","Ok","NA","no","Female","768","legacy","C:/Users/User/Dropbox/Sussex/Consciousness and control/Exp 1 - stroop suggestion and PCE/Methods/Palfi_script/laptop_size/subject-0.csv","legacy","Interactive Ising","3.0.2","0","n","n","space","NA","582","582","6481","NA","2","legacy","1024","2","48000","-16","experiment","0","even","237631","NA","58992","120648","53314","327816","327244","327781","328403","329393","231149","NA","231149","45195","328641","327279","NA","2063","NA","NA","322210","2063","329843","NA","123799","327242","327816","Stroop CI","69","124718","72","yes","1366","GREEN"
"66","95.8904109589","yes","95.8904109589","23","1719","1719","#ffffff","no","C","v;b;n;m","legacy","I have read and understood the information shown above","legacy","legacy","blue","0","con","uniform","1","1","1","NA","0","0","0","0","0","68","68","68","68","68","0","0","5","0","68","68","0","0","NA","0","68","0","68","NA","0","68","68","12/06/16 12:07:21","The main experiment item","yes","b","W:\Sussex\Consciousness and control\Exp 1 - stroop suggestion and PCE\Methods\Palfi_script","no","mono","no","18","no","black","no","Ok","NA","no","Female","768","legacy","C:/Users/User/Dropbox/Sussex/Consciousness and control/Exp 1 - stroop suggestion and PCE/Methods/Palfi_script/laptop_size/subject-0.csv","legacy","Interactive Ising","3.0.2","0","b","b","space","NA","786","786","6481","NA","2","legacy","1024","2","48000","-16","experiment","0","even","237631","NA","58992","120648","53314","330585","330013","330550","331374","332365","231149","NA","231149","45195","331611","330048","NA","2063","NA","NA","322210","2063","332815","NA","123799","330011","330585","Stroop CI","70","125504","73","yes","1366","BLUE"
"46","95.9459459459","yes","95.9459459459","23","1704","1704","#ffffff","no","C","v;b;n;m","legacy","I have read and understood the information shown above","legacy","legacy","red","0","con","uniform","1","1","1","NA","0","0","0","0","0","69","69","69","69","69","0","0","5","0","69","69","0","0","NA","0","69","0","69","NA","0","69","69","12/06/16 12:07:21","The main experiment item","yes","v","W:\Sussex\Consciousness and control\Exp 1 - stroop suggestion and PCE\Methods\Palfi_script","no","mono","no","18","no","black","no","Ok","NA","no","Female","768","legacy","C:/Users/User/Dropbox/Sussex/Consciousness and control/Exp 1 - stroop suggestion and PCE/Methods/Palfi_script/laptop_size/subject-0.csv","legacy","Interactive Ising","3.0.2","0","v","v","space","NA","617","617","6481","NA","2","legacy","1024","2","48000","-16","experiment","0","even","237631","NA","58992","120648","53314","333566","332994","333531","334186","335174","231149","NA","231149","45195","334422","333029","NA","2063","NA","NA","322210","2063","335624","NA","123799","332992","333566","Stroop CI","71","126121","74","yes","1366","RED"
"22","96","yes","96","23","1690","1690","#ffffff","no","C","v;b;n;m","legacy","I have read and understood the information shown above","legacy","legacy","#ffef36","0","neutral","uniform","1","1","1","NA","0","0","0","0","0","70","70","70","70","70","0","0","5","0","70","70","0","0","NA","0","70","0","70","NA","0","70","70","12/06/16 12:07:21","The main experiment item","yes","m","W:\Sussex\Consciousness and control\Exp 1 - stroop suggestion and PCE\Methods\Palfi_script","no","mono","no","18","no","black","no","Ok","NA","no","Female","768","legacy","C:/Users/User/Dropbox/Sussex/Consciousness and control/Exp 1 - stroop suggestion and PCE/Methods/Palfi_script/laptop_size/subject-0.csv","legacy","Interactive Ising","3.0.2","0","m","m","space","NA","673","673","6481","NA","2","legacy","1024","2","48000","-16","experiment","0","even","237631","NA","58992","120648","53314","336429","335856","336394","337105","338096","231149","NA","231149","45195","337344","335892","NA","2063","NA","NA","322210","2063","338547","NA","123799","335854","336429","Stroop CI","72","126794","75","yes","1366","LOT"
"6","96.0526315789","yes","96.0526315789","23","1677","1677","#ffffff","no","C","v;b;n;m","legacy","I have read and understood the information shown above","legacy","legacy","red","0","inc","uniform","1","1","1","NA","0","0","0","0","0","71","71","71","71","71","0","0","5","0","71","71","0","0","NA","0","71","0","71","NA","0","71","71","12/06/16 12:07:21","The main experiment item","yes","v","W:\Sussex\Consciousness and control\Exp 1 - stroop suggestion and PCE\Methods\Palfi_script","no","mono","no","18","no","black","no","Ok","NA","no","Female","768","legacy","C:/Users/User/Dropbox/Sussex/Consciousness and control/Exp 1 - stroop suggestion and PCE/Methods/Palfi_script/laptop_size/subject-0.csv","legacy","Interactive Ising","3.0.2","0","v","v","space","NA","701","701","6481","NA","2","legacy","1024","2","48000","-16","experiment","0","even","237631","NA","58992","120648","53314","339254","338681","339219","339958","340947","231149","NA","231149","45195","340195","338717","NA","2063","NA","NA","322210","2063","341397","NA","123799","338679","339254","Stroop CI","73","127495","76","yes","1366","YELLOW"
"116","96.1038961039","yes","96.1038961039","23","1664","1664","#ffffff","no","C","v;b;n;m","legacy","I have read and understood the information shown above","legacy","legacy","#ffef36","0","con","uniform","1","1","1","NA","0","0","0","0","0","72","72","72","72","72","0","0","5","0","72","72","0","0","NA","0","72","0","72","NA","0","72","72","12/06/16 12:07:21","The main experiment item","yes","m","W:\Sussex\Consciousness and control\Exp 1 - stroop suggestion and PCE\Methods\Palfi_script","no","mono","no","18","no","black","no","Ok","NA","no","Female","768","legacy","C:/Users/User/Dropbox/Sussex/Consciousness and control/Exp 1 - stroop suggestion and PCE/Methods/Palfi_script/laptop_size/subject-0.csv","legacy","Interactive Ising","3.0.2","0","m","m","space","NA","660","660","6481","NA","2","legacy","1024","2","48000","-16","experiment","0","even","237631","NA","58992","120648","53314","342135","341563","342100","342798","343788","231149","NA","231149","45195","343034","341598","NA","2063","NA","NA","322210","2063","344238","NA","123799","341561","342135","Stroop CI","74","128155","77","yes","1366","YELLOW"
"57","96.1538461538","yes","96.1538461538","23","1654","1654","#ffffff","no","C","v;b;n;m","legacy","I have read and understood the information shown above","legacy","legacy","blue","0","con","uniform","1","1","1","NA","0","0","0","0","0","73","73","73","73","73","0","0","5","0","73","73","0","0","NA","0","73","0","73","NA","0","73","73","12/06/16 12:07:21","The main experiment item","yes","b","W:\Sussex\Consciousness and control\Exp 1 - stroop suggestion and PCE\Methods\Palfi_script","no","mono","no","18","no","black","no","Ok","NA","no","Female","768","legacy","C:/Users/User/Dropbox/Sussex/Consciousness and control/Exp 1 - stroop suggestion and PCE/Methods/Palfi_script/laptop_size/subject-0.csv","legacy","Interactive Ising","3.0.2","0","b","b","space","NA","918","918","6481","NA","2","legacy","1024","2","48000","-16","experiment","0","even","237631","NA","58992","120648","53314","344943","344370","344907","345864","346854","231149","NA","231149","45195","346100","344405","NA","2063","NA","NA","322210","2063","347304","NA","123799","344368","344942","Stroop CI","75","129073","78","yes","1366","BLUE"
"60","96.2025316456","yes","96.2025316456","23","1640","1640","#ffffff","no","C","v;b;n;m","legacy","I have read and understood the information shown above","legacy","legacy","blue","0","con","uniform","1","1","1","NA","0","0","0","0","0","74","74","74","74","74","0","0","5","0","74","74","0","0","NA","0","74","0","74","NA","0","74","74","12/06/16 12:07:21","The main experiment item","yes","b","W:\Sussex\Consciousness and control\Exp 1 - stroop suggestion and PCE\Methods\Palfi_script","no","mono","no","18","no","black","no","Ok","NA","no","Female","768","legacy","C:/Users/User/Dropbox/Sussex/Consciousness and control/Exp 1 - stroop suggestion and PCE/Methods/Palfi_script/laptop_size/subject-0.csv","legacy","Interactive Ising","3.0.2","0","b","b","space","NA","520","520","6481","NA","2","legacy","1024","2","48000","-16","experiment","0","even","237631","NA","58992","120648","53314","348024","347452","347989","348548","349538","231149","NA","231149","45195","348784","347487","NA","2063","NA","NA","322210","2063","349988","NA","123799","347450","348024","Stroop CI","76","129593","79","yes","1366","BLUE"
"104","96.25","yes","96.25","23","1627","1627","#ffffff","no","C","v;b;n;m","legacy","I have read and understood the information shown above","legacy","legacy","#ffef36","0","con","uniform","1","1","1","NA","0","0","0","0","0","75","75","75","75","75","0","0","5","0","75","75","0","0","NA","0","75","0","75","NA","0","75","75","12/06/16 12:07:21","The main experiment item","yes","m","W:\Sussex\Consciousness and control\Exp 1 - stroop suggestion and PCE\Methods\Palfi_script","no","mono","no","18","no","black","no","Ok","NA","no","Female","768","legacy","C:/Users/User/Dropbox/Sussex/Consciousness and control/Exp 1 - stroop suggestion and PCE/Methods/Palfi_script/laptop_size/subject-0.csv","legacy","Interactive Ising","3.0.2","0","m","m","space","NA","602","602","6481","NA","2","legacy","1024","2","48000","-16","experiment","0","even","237631","NA","58992","120648","53314","350698","350125","350663","351303","352291","231149","NA","231149","45195","351539","350161","NA","2063","NA","NA","322210","2063","352741","NA","123799","350123","350698","Stroop CI","77","130195","80","yes","1366","YELLOW"
"65","96.2962962963","yes","96.2962962963","23","1613","1613","#ffffff","no","C","v;b;n;m","legacy","I have read and understood the information shown above","legacy","legacy","blue","0","con","uniform","1","1","1","NA","0","0","0","0","0","76","76","76","76","76","0","0","5","0","76","76","0","0","NA","0","76","0","76","NA","0","76","76","12/06/16 12:07:21","The main experiment item","yes","b","W:\Sussex\Consciousness and control\Exp 1 - stroop suggestion and PCE\Methods\Palfi_script","no","mono","no","18","no","black","no","Ok","NA","no","Female","768","legacy","C:/Users/User/Dropbox/Sussex/Consciousness and control/Exp 1 - stroop suggestion and PCE/Methods/Palfi_script/laptop_size/subject-0.csv","legacy","Interactive Ising","3.0.2","0","b","b","space","NA","511","511","6481","NA","2","legacy","1024","2","48000","-16","experiment","0","even","237631","NA","58992","120648","53314","353460","352888","353425","353974","354965","231149","NA","231149","45195","354211","352923","NA","2063","NA","NA","322210","2063","355415","NA","123799","352885","353460","Stroop CI","78","130706","81","yes","1366","BLUE"
"55","96.3414634146","yes","96.3414634146","23","1601","1601","#ffffff","no","C","v;b;n;m","legacy","I have read and understood the information shown above","legacy","legacy","blue","0","con","uniform","1","1","1","NA","0","0","0","0","0","77","77","77","77","77","0","0","5","0","77","77","0","0","NA","0","77","0","77","NA","0","77","77","12/06/16 12:07:21","The main experiment item","yes","b","W:\Sussex\Consciousness and control\Exp 1 - stroop suggestion and PCE\Methods\Palfi_script","no","mono","no","18","no","black","no","Ok","NA","no","Female","768","legacy","C:/Users/User/Dropbox/Sussex/Consciousness and control/Exp 1 - stroop suggestion and PCE/Methods/Palfi_script/laptop_size/subject-0.csv","legacy","Interactive Ising","3.0.2","0","b","b","space","NA","614","614","6481","NA","2","legacy","1024","2","48000","-16","experiment","0","even","237631","NA","58992","120648","53314","356119","355547","356084","356736","357726","231149","NA","231149","45195","356973","355582","NA","2063","NA","NA","322210","2063","358176","NA","123799","355545","356119","Stroop CI","79","131320","82","yes","1366","BLUE"
"3","96.3855421687","yes","96.3855421687","23","1591","1591","#ffffff","no","C","v;b;n;m","legacy","I have read and understood the information shown above","legacy","legacy","red","0","inc","uniform","1","1","1","NA","0","0","0","0","0","78","78","78","78","78","0","0","5","0","78","78","0","0","NA","0","78","0","78","NA","0","78","78","12/06/16 12:07:21","The main experiment item","yes","v","W:\Sussex\Consciousness and control\Exp 1 - stroop suggestion and PCE\Methods\Palfi_script","no","mono","no","18","no","black","no","Ok","NA","no","Female","768","legacy","C:/Users/User/Dropbox/Sussex/Consciousness and control/Exp 1 - stroop suggestion and PCE/Methods/Palfi_script/laptop_size/subject-0.csv","legacy","Interactive Ising","3.0.2","0","v","v","space","NA","789","789","6481","NA","2","legacy","1024","2","48000","-16","experiment","0","even","237631","NA","58992","120648","53314","358883","358311","358848","359675","360663","231149","NA","231149","45195","359911","358346","NA","2063","NA","NA","322210","2063","361113","NA","123799","358309","358883","Stroop CI","80","132109","83","yes","1366","GREEN"
"28","96.4285714286","yes","96.4285714286","23","1578","1578","#ffffff","no","C","v;b;n;m","legacy","I have read and understood the information shown above","legacy","legacy","red","0","con","uniform","1","1","1","NA","0","0","0","0","0","79","79","79","79","79","0","0","5","0","79","79","0","0","NA","0","79","0","79","NA","0","79","79","12/06/16 12:07:21","The main experiment item","yes","v","W:\Sussex\Consciousness and control\Exp 1 - stroop suggestion and PCE\Methods\Palfi_script","no","mono","no","18","no","black","no","Ok","NA","no","Female","768","legacy","C:/Users/User/Dropbox/Sussex/Consciousness and control/Exp 1 - stroop suggestion and PCE/Methods/Palfi_script/laptop_size/subject-0.csv","legacy","Interactive Ising","3.0.2","0","v","v","space","NA","444","444","6481","NA","2","legacy","1024","2","48000","-16","experiment","0","even","237631","NA","58992","120648","53314","361867","361295","361832","362314","363302","231149","NA","231149","45195","362550","361330","NA","2063","NA","NA","322210","2063","363752","NA","123799","361293","361867","Stroop CI","81","132553","84","yes","1366","RED"
"115","96.4705882353","yes","96.4705882353","23","1567","1567","#ffffff","no","C","v;b;n;m","legacy","I have read and understood the information shown above","legacy","legacy","#ffef36","0","con","uniform","1","1","1","NA","0","0","0","0","0","80","80","80","80","80","0","0","5","0","80","80","0","0","NA","0","80","0","80","NA","0","80","80","12/06/16 12:07:21","The main experiment item","yes","m","W:\Sussex\Consciousness and control\Exp 1 - stroop suggestion and PCE\Methods\Palfi_script","no","mono","no","18","no","black","no","Ok","NA","no","Female","768","legacy","C:/Users/User/Dropbox/Sussex/Consciousness and control/Exp 1 - stroop suggestion and PCE/Methods/Palfi_script/laptop_size/subject-0.csv","legacy","Interactive Ising","3.0.2","0","m","m","space","NA","689","689","6481","NA","2","legacy","1024","2","48000","-16","experiment","0","even","237631","NA","58992","120648","53314","364457","363885","364422","365149","366137","231149","NA","231149","45195","365385","363920","NA","2063","NA","NA","322210","2063","366587","NA","123799","363883","364457","Stroop CI","82","133242","85","yes","1366","YELLOW"
"54","96.511627907","yes","96.511627907","23","1559","1559","#ffffff","no","C","v;b;n;m","legacy","I have read and understood the information shown above","legacy","legacy","blue","0","con","uniform","1","1","1","NA","0","0","0","0","0","81","81","81","81","81","0","0","5","0","81","81","0","0","NA","0","81","0","81","NA","0","81","81","12/06/16 12:07:21","The main experiment item","yes","b","W:\Sussex\Consciousness and control\Exp 1 - stroop suggestion and PCE\Methods\Palfi_script","no","mono","no","18","no","black","no","Ok","NA","no","Female","768","legacy","C:/Users/User/Dropbox/Sussex/Consciousness and control/Exp 1 - stroop suggestion and PCE/Methods/Palfi_script/laptop_size/subject-0.csv","legacy","Interactive Ising","3.0.2","0","b","b","space","NA","887","887","6481","NA","2","legacy","1024","2","48000","-16","experiment","0","even","237631","NA","58992","120648","53314","367311","366738","367276","368201","369191","231149","NA","231149","45195","368439","366774","NA","2063","NA","NA","322210","2063","369642","NA","123799","366736","367311","Stroop CI","83","134129","86","yes","1366","BLUE"
"102","96.5517241379","yes","96.5517241379","23","1550","1550","#ffffff","no","C","v;b;n;m","legacy","I have read and understood the information shown above","legacy","legacy","#ffef36","0","con","uniform","1","1","1","NA","0","0","0","0","0","82","82","82","82","82","0","0","5","0","82","82","0","0","NA","0","82","0","82","NA","0","82","82","12/06/16 12:07:21","The main experiment item","yes","m","W:\Sussex\Consciousness and control\Exp 1 - stroop suggestion and PCE\Methods\Palfi_script","no","mono","no","18","no","black","no","Ok","NA","no","Female","768","legacy","C:/Users/User/Dropbox/Sussex/Consciousness and control/Exp 1 - stroop suggestion and PCE/Methods/Palfi_script/laptop_size/subject-0.csv","legacy","Interactive Ising","3.0.2","0","m","m","space","NA","755","755","6481","NA","2","legacy","1024","2","48000","-16","experiment","0","even","237631","NA","58992","120648","53314","370360","369788","370325","371117","372106","231149","NA","231149","45195","371354","369823","NA","2063","NA","NA","322210","2063","372556","NA","123799","369786","370360","Stroop CI","84","134884","87","yes","1366","YELLOW"
"113","96.5909090909","yes","96.5909090909","23","1539","1539","#ffffff","no","C","v;b;n;m","legacy","I have read and understood the information shown above","legacy","legacy","#ffef36","0","con","uniform","1","1","1","NA","0","0","0","0","0","83","83","83","83","83","0","0","5","0","83","83","0","0","NA","0","83","0","83","NA","0","83","83","12/06/16 12:07:21","The main experiment item","yes","m","W:\Sussex\Consciousness and control\Exp 1 - stroop suggestion and PCE\Methods\Palfi_script","no","mono","no","18","no","black","no","Ok","NA","no","Female","768","legacy","C:/Users/User/Dropbox/Sussex/Consciousness and control/Exp 1 - stroop suggestion and PCE/Methods/Palfi_script/laptop_size/subject-0.csv","legacy","Interactive Ising","3.0.2","0","m","m","space","NA","633","633","6481","NA","2","legacy","1024","2","48000","-16","experiment","0","even","237631","NA","58992","120648","53314","373260","372688","373225","373896","374884","231149","NA","231149","45195","374132","372723","NA","2063","NA","NA","322210","2063","375334","NA","123799","372686","373260","Stroop CI","85","135517","88","yes","1366","YELLOW"
"67","96.6292134831","yes","96.6292134831","23","1528","1528","#ffffff","no","C","v;b;n;m","legacy","I have read and understood the information shown above","legacy","legacy","blue","0","con","uniform","1","1","1","NA","0","0","0","0","0","84","84","84","84","84","0","0","5","0","84","84","0","0","NA","0","84","0","84","NA","0","84","84","12/06/16 12:07:21","The main experiment item","yes","b","W:\Sussex\Consciousness and control\Exp 1 - stroop suggestion and PCE\Methods\Palfi_script","no","mono","no","18","no","black","no","Ok","NA","no","Female","768","legacy","C:/Users/User/Dropbox/Sussex/Consciousness and control/Exp 1 - stroop suggestion and PCE/Methods/Palfi_script/laptop_size/subject-0.csv","legacy","Interactive Ising","3.0.2","0","b","b","space","NA","508","508","6481","NA","2","legacy","1024","2","48000","-16","experiment","0","even","237631","NA","58992","120648","53314","376069","375497","376034","376580","377568","231149","NA","231149","45195","376816","375532","NA","2063","NA","NA","322210","2063","378018","NA","123799","375494","376069","Stroop CI","86","136025","89","yes","1366","BLUE"
"12","95.5555555556","yes","95.5555555556","23","1520","1520","#ffffff","no","C","v;b;n;m","legacy","I have read and understood the information shown above","legacy","legacy","blue","0","inc","uniform","0","0","1","NA","0","0","0","0","0","85","85","85","85","85","0","0","5","0","85","85","0","0","NA","0","85","0","85","NA","0","85","85","12/06/16 12:07:21","The main experiment item","yes","b","W:\Sussex\Consciousness and control\Exp 1 - stroop suggestion and PCE\Methods\Palfi_script","no","mono","no","18","no","black","no","Ok","NA","no","Female","768","legacy","C:/Users/User/Dropbox/Sussex/Consciousness and control/Exp 1 - stroop suggestion and PCE/Methods/Palfi_script/laptop_size/subject-0.csv","legacy","Interactive Ising","3.0.2","0","m","m","space","NA","851","851","6481","NA","2","legacy","1024","2","48000","-16","experiment","0","even","237631","NA","58992","120648","53314","378851","378279","378816","379705","380693","231149","NA","231149","45195","376816","378314","NA","2063","NA","NA","379941","2063","381143","NA","123799","378276","378851","Stroop CI","86","136876","90","yes","1366","YELLOW"
"2","95.6043956044","yes","95.6043956044","23","1517","1517","#ffffff","no","C","v;b;n;m","legacy","I have read and understood the information shown above","legacy","legacy","red","0","inc","uniform","1","1","1","NA","0","0","0","0","0","86","86","86","86","86","0","0","5","0","86","86","0","0","NA","0","86","0","86","NA","0","86","86","12/06/16 12:07:21","The main experiment item","yes","v","W:\Sussex\Consciousness and control\Exp 1 - stroop suggestion and PCE\Methods\Palfi_script","no","mono","no","18","no","black","no","Ok","NA","no","Female","768","legacy","C:/Users/User/Dropbox/Sussex/Consciousness and control/Exp 1 - stroop suggestion and PCE/Methods/Palfi_script/laptop_size/subject-0.csv","legacy","Interactive Ising","3.0.2","0","v","v","space","NA","1209","1209","6481","NA","2","legacy","1024","2","48000","-16","experiment","0","even","237631","NA","58992","120648","53314","381858","381286","381823","383070","384058","231149","NA","231149","45195","383306","381321","NA","2063","NA","NA","379941","2063","384508","NA","123799","381283","381858","Stroop CI","87","138085","91","yes","1366","BLUE"
