"ID","acc","accept_status","accuracy","age","average_response_time","avg_rt","background","bidi","block","buttons","canvas_backend","checkbox_status","clock_backend","color_backend","colour","compensation","congruency","coordinates","correct","correct_answer","correct_button_block","correct_new_keyboard_response","count_C","count_I","count_Instruction","count_Practice_start","count_age","count_answer","count_blank","count_blank2","count_blank3","count_blank_4","count_break","count_break2","count_button_block","count_consent_form","count_correct_feedback","count_cross","count_end","count_experiment","count_feedback","count_gender","count_incorrect_feedback","count_information_sheet","count_logger","count_new_keyboard_response","count_practice","count_stroop","count_target","datetime","description","disable_garbage_collection","expected","experiment_path","font_bold","font_family","font_italic","font_size","font_underline","foreground","form_clicks","form_response","form_var","fullscreen","gender","height","keyboard_backend","logfile","mouse_backend","opensesame_codename","opensesame_version","repeat_cycle","response","response_answer","response_button_block","response_new_keyboard_response","response_time","response_time_answer","response_time_button_block","response_time_new_keyboard_response","round_decimals","sampler_backend","sound_buf_size","sound_channels","sound_freq","sound_sample_size","start","subject_nr","subject_parity","time_C","time_I","time_Instruction","time_Practice_start","time_age","time_answer","time_blank","time_blank2","time_blank3","time_blank_4","time_break","time_break2","time_button_block","time_consent_form","time_correct_feedback","time_cross","time_end","time_experiment","time_feedback","time_gender","time_incorrect_feedback","time_information_sheet","time_logger","time_new_keyboard_response","time_practice","time_stroop","time_target","title","total_correct","total_response_time","total_responses","uniform_coordinates","width","word"
"21","100","yes","100","24","40330","40330","#ffffff","no","practice","v;b;n;m","legacy","I have read and understood the information shown above","legacy","legacy","green","0","con","uniform","1","1","1","NA","0","0","0","0","0","0","0","0","0","0","0","0","5","0","0","0","0","0","NA","0","0","0","0","NA","0","0","0","12/08/16 15:11:21","The main experiment item","yes","n","W:\Sussex\Consciousness and control\Exp 1 - stroop suggestion and PCE\Methods\Palfi_script","no","mono","no","18","no","black","no","Ok","NA","no","Female","768","legacy","C:/Users/User/Dropbox/Sussex/Consciousness and control/Exp 1 - stroop suggestion and PCE/Methods/Palfi_script/laptop_size/subject-13_CI.csv","legacy","Interactive Ising","3.0.2","0","n","n","space","NA","1930","1930","18272","NA","2","legacy","1024","2","48000","-16","experiment","13","odd","NA","NA","203112","332232","178395","351271","350699","351236","353204","354194","NA","NA","332232","162294","353440","350734","NA","2740","NA","NA","NA","4782","354644","NA","350505","350696","351271","Stroop CI","4","161322","4","yes","1366","GREEN"
"4","80","yes","80","24","32493","32493","#ffffff","no","practice","v;b;n;m","legacy","I have read and understood the information shown above","legacy","legacy","blue","0","inc","uniform","0","0","1","NA","0","0","0","0","0","1","1","1","1","1","0","0","5","0","1","1","0","0","NA","0","1","0","1","NA","0","1","1","12/08/16 15:11:21","The main experiment item","yes","b","W:\Sussex\Consciousness and control\Exp 1 - stroop suggestion and PCE\Methods\Palfi_script","no","mono","no","18","no","black","no","Ok","NA","no","Female","768","legacy","C:/Users/User/Dropbox/Sussex/Consciousness and control/Exp 1 - stroop suggestion and PCE/Methods/Palfi_script/laptop_size/subject-13_CI.csv","legacy","Interactive Ising","3.0.2","0","v","v","space","NA","1147","1147","18272","NA","2","legacy","1024","2","48000","-16","experiment","13","odd","NA","NA","203112","332232","178395","355437","354865","355402","356587","357577","NA","NA","332232","162294","353440","354900","NA","2740","NA","NA","356825","4782","358027","NA","350505","354863","355437","Stroop CI","4","162469","5","yes","1366","RED"
"16","83.3333333333","yes","83.3333333333","24","27199","27199","#ffffff","no","practice","v;b;n;m","legacy","I have read and understood the information shown above","legacy","legacy","blue","0","con","uniform","1","1","1","NA","0","0","0","0","0","2","2","2","2","2","0","0","5","0","2","2","0","0","NA","0","2","0","2","NA","0","2","2","12/08/16 15:11:21","The main experiment item","yes","b","W:\Sussex\Consciousness and control\Exp 1 - stroop suggestion and PCE\Methods\Palfi_script","no","mono","no","18","no","black","no","Ok","NA","no","Female","768","legacy","C:/Users/User/Dropbox/Sussex/Consciousness and control/Exp 1 - stroop suggestion and PCE/Methods/Palfi_script/laptop_size/subject-13_CI.csv","legacy","Interactive Ising","3.0.2","0","b","b","space","NA","730","730","18272","NA","2","legacy","1024","2","48000","-16","experiment","13","odd","NA","NA","203112","332232","178395","358735","358163","358700","359467","360457","NA","NA","332232","162294","359704","358198","NA","2740","NA","NA","356825","4782","360908","NA","350505","358161","358735","Stroop CI","5","163199","6","yes","1366","BLUE"
"27","85.7142857143","yes","85.7142857143","24","23390","23390","#ffffff","no","practice","v;b;n;m","legacy","I have read and understood the information shown above","legacy","legacy","red","0","neutral","uniform","1","1","1","NA","0","0","0","0","0","3","3","3","3","3","0","0","5","0","3","3","0","0","NA","0","3","0","3","NA","0","3","3","12/08/16 15:11:21","The main experiment item","yes","v","W:\Sussex\Consciousness and control\Exp 1 - stroop suggestion and PCE\Methods\Palfi_script","no","mono","no","18","no","black","no","Ok","NA","no","Female","768","legacy","C:/Users/User/Dropbox/Sussex/Consciousness and control/Exp 1 - stroop suggestion and PCE/Methods/Palfi_script/laptop_size/subject-13_CI.csv","legacy","Interactive Ising","3.0.2","0","v","v","space","NA","536","536","18272","NA","2","legacy","1024","2","48000","-16","experiment","13","odd","NA","NA","203112","332232","178395","361622","361050","361587","362161","363150","NA","NA","332232","162294","362398","361085","NA","2740","NA","NA","356825","4782","363600","NA","350505","361048","361622","Stroop CI","6","163735","7","yes","1366","FLOWER"
"35","87.5","yes","87.5","24","20540","20540","#ffffff","no","practice","v;b;n;m","legacy","I have read and understood the information shown above","legacy","legacy","#ffef36","0","neutral","uniform","1","1","1","NA","0","0","0","0","0","4","4","4","4","4","0","0","5","0","4","4","0","0","NA","0","4","0","4","NA","0","4","4","12/08/16 15:11:21","The main experiment item","yes","m","W:\Sussex\Consciousness and control\Exp 1 - stroop suggestion and PCE\Methods\Palfi_script","no","mono","no","18","no","black","no","Ok","NA","no","Female","768","legacy","C:/Users/User/Dropbox/Sussex/Consciousness and control/Exp 1 - stroop suggestion and PCE/Methods/Palfi_script/laptop_size/subject-13_CI.csv","legacy","Interactive Ising","3.0.2","0","m","m","space","NA","590","590","18272","NA","2","legacy","1024","2","48000","-16","experiment","13","odd","NA","NA","203112","332232","178395","364294","363722","364259","364887","365875","NA","NA","332232","162294","365123","363757","NA","2740","NA","NA","356825","4782","366325","NA","350505","363720","364294","Stroop CI","7","164325","8","yes","1366","SHIP"
"25","88.8888888889","yes","88.8888888889","24","18338","18338","#ffffff","no","practice","v;b;n;m","legacy","I have read and understood the information shown above","legacy","legacy","red","0","neutral","uniform","1","1","1","NA","0","0","0","0","0","5","5","5","5","5","0","0","5","0","5","5","0","0","NA","0","5","0","5","NA","0","5","5","12/08/16 15:11:21","The main experiment item","yes","v","W:\Sussex\Consciousness and control\Exp 1 - stroop suggestion and PCE\Methods\Palfi_script","no","mono","no","18","no","black","no","Ok","NA","no","Female","768","legacy","C:/Users/User/Dropbox/Sussex/Consciousness and control/Exp 1 - stroop suggestion and PCE/Methods/Palfi_script/laptop_size/subject-13_CI.csv","legacy","Interactive Ising","3.0.2","0","v","v","space","NA","724","724","18272","NA","2","legacy","1024","2","48000","-16","experiment","13","odd","NA","NA","203112","332232","178395","367039","366467","367004","367766","368754","NA","NA","332232","162294","368002","366502","NA","2740","NA","NA","356825","4782","369204","NA","350505","366465","367039","Stroop CI","8","165049","9","yes","1366","SHIP"
"19","90","yes","90","24","16620","16620","#ffffff","no","practice","v;b;n;m","legacy","I have read and understood the information shown above","legacy","legacy","green","0","con","uniform","1","1","1","NA","0","0","0","0","0","6","6","6","6","6","0","0","5","0","6","6","0","0","NA","0","6","0","6","NA","0","6","6","12/08/16 15:11:21","The main experiment item","yes","n","W:\Sussex\Consciousness and control\Exp 1 - stroop suggestion and PCE\Methods\Palfi_script","no","mono","no","18","no","black","no","Ok","NA","no","Female","768","legacy","C:/Users/User/Dropbox/Sussex/Consciousness and control/Exp 1 - stroop suggestion and PCE/Methods/Palfi_script/laptop_size/subject-13_CI.csv","legacy","Interactive Ising","3.0.2","0","n","n","space","NA","1152","1152","18272","NA","2","legacy","1024","2","48000","-16","experiment","13","odd","NA","NA","203112","332232","178395","369951","369379","369916","371106","372096","NA","NA","332232","162294","371344","369414","NA","2740","NA","NA","356825","4782","372546","NA","350505","369377","369951","Stroop CI","9","166201","10","yes","1366","GREEN"
"18","90.9090909091","yes","90.9090909091","24","15165","15165","#ffffff","no","practice","v;b;n;m","legacy","I have read and understood the information shown above","legacy","legacy","blue","0","con","uniform","1","1","1","NA","0","0","0","0","0","7","7","7","7","7","0","0","5","0","7","7","0","0","NA","0","7","0","7","NA","0","7","7","12/08/16 15:11:21","The main experiment item","yes","b","W:\Sussex\Consciousness and control\Exp 1 - stroop suggestion and PCE\Methods\Palfi_script","no","mono","no","18","no","black","no","Ok","NA","no","Female","768","legacy","C:/Users/User/Dropbox/Sussex/Consciousness and control/Exp 1 - stroop suggestion and PCE/Methods/Palfi_script/laptop_size/subject-13_CI.csv","legacy","Interactive Ising","3.0.2","0","b","b","space","NA","618","618","18272","NA","2","legacy","1024","2","48000","-16","experiment","13","odd","NA","NA","203112","332232","178395","373253","372681","373218","373874","374864","NA","NA","332232","162294","374110","372716","NA","2740","NA","NA","356825","4782","375314","NA","350505","372678","373253","Stroop CI","10","166819","11","yes","1366","BLUE"
"31","91.6666666667","yes","91.6666666667","24","13993","13993","#ffffff","no","practice","v;b;n;m","legacy","I have read and understood the information shown above","legacy","legacy","green","0","neutral","uniform","1","1","1","NA","0","0","0","0","0","8","8","8","8","8","0","0","5","0","8","8","0","0","NA","0","8","0","8","NA","0","8","8","12/08/16 15:11:21","The main experiment item","yes","n","W:\Sussex\Consciousness and control\Exp 1 - stroop suggestion and PCE\Methods\Palfi_script","no","mono","no","18","no","black","no","Ok","NA","no","Female","768","legacy","C:/Users/User/Dropbox/Sussex/Consciousness and control/Exp 1 - stroop suggestion and PCE/Methods/Palfi_script/laptop_size/subject-13_CI.csv","legacy","Interactive Ising","3.0.2","0","n","n","space","NA","1098","1098","18272","NA","2","legacy","1024","2","48000","-16","experiment","13","odd","NA","NA","203112","332232","178395","376051","375479","376016","377151","378141","NA","NA","332232","162294","377389","375514","NA","2740","NA","NA","356825","4782","378591","NA","350505","375476","376051","Stroop CI","11","167917","12","yes","1366","LOT"
"11","92.3076923077","yes","92.3076923077","24","12964","12964","#ffffff","no","practice","v;b;n;m","legacy","I have read and understood the information shown above","legacy","legacy","#ffef36","0","inc","uniform","1","1","1","NA","0","0","0","0","0","9","9","9","9","9","0","0","5","0","9","9","0","0","NA","0","9","0","9","NA","0","9","9","12/08/16 15:11:21","The main experiment item","yes","m","W:\Sussex\Consciousness and control\Exp 1 - stroop suggestion and PCE\Methods\Palfi_script","no","mono","no","18","no","black","no","Ok","NA","no","Female","768","legacy","C:/Users/User/Dropbox/Sussex/Consciousness and control/Exp 1 - stroop suggestion and PCE/Methods/Palfi_script/laptop_size/subject-13_CI.csv","legacy","Interactive Ising","3.0.2","0","m","m","space","NA","621","621","18272","NA","2","legacy","1024","2","48000","-16","experiment","13","odd","NA","NA","203112","332232","178395","379288","378715","379253","379916","380905","NA","NA","332232","162294","380152","378751","NA","2740","NA","NA","356825","4782","381355","NA","350505","378713","379288","Stroop CI","12","168538","13","yes","1366","BLUE"
"6","85.7142857143","yes","85.7142857143","24","12105","12105","#ffffff","no","practice","v;b;n;m","legacy","I have read and understood the information shown above","legacy","legacy","blue","0","inc","uniform","0","0","1","NA","0","0","0","0","0","10","10","10","10","10","0","0","5","0","10","10","0","0","NA","0","10","0","10","NA","0","10","10","12/08/16 15:11:21","The main experiment item","yes","b","W:\Sussex\Consciousness and control\Exp 1 - stroop suggestion and PCE\Methods\Palfi_script","no","mono","no","18","no","black","no","Ok","NA","no","Female","768","legacy","C:/Users/User/Dropbox/Sussex/Consciousness and control/Exp 1 - stroop suggestion and PCE/Methods/Palfi_script/laptop_size/subject-13_CI.csv","legacy","Interactive Ising","3.0.2","0","n","n","space","NA","945","945","18272","NA","2","legacy","1024","2","48000","-16","experiment","13","odd","NA","NA","203112","332232","178395","382099","381525","382064","383047","384036","NA","NA","332232","162294","380152","381560","NA","2740","NA","NA","383284","4782","384486","NA","350505","381523","382099","Stroop CI","12","169483","14","yes","1366","YELLOW"
"20","86.6666666667","yes","86.6666666667","24","11363","11363","#ffffff","no","practice","v;b;n;m","legacy","I have read and understood the information shown above","legacy","legacy","green","0","con","uniform","1","1","1","NA","0","0","0","0","0","11","11","11","11","11","0","0","5","0","11","11","0","0","NA","0","11","0","11","NA","0","11","11","12/08/16 15:11:21","The main experiment item","yes","n","W:\Sussex\Consciousness and control\Exp 1 - stroop suggestion and PCE\Methods\Palfi_script","no","mono","no","18","no","black","no","Ok","NA","no","Female","768","legacy","C:/Users/User/Dropbox/Sussex/Consciousness and control/Exp 1 - stroop suggestion and PCE/Methods/Palfi_script/laptop_size/subject-13_CI.csv","legacy","Interactive Ising","3.0.2","0","n","n","space","NA","974","974","18272","NA","2","legacy","1024","2","48000","-16","experiment","13","odd","NA","NA","203112","332232","178395","385223","384651","385188","386200","387189","NA","NA","332232","162294","386436","384686","NA","2740","NA","NA","383284","4782","387639","NA","350505","384649","385223","Stroop CI","13","170457","15","yes","1366","GREEN"
"10","87.5","yes","87.5","24","10698","10698","#ffffff","no","practice","v;b;n;m","legacy","I have read and understood the information shown above","legacy","legacy","#ffef36","0","inc","uniform","1","1","1","NA","0","0","0","0","0","12","12","12","12","12","0","0","5","0","12","12","0","0","NA","0","12","0","12","NA","0","12","12","12/08/16 15:11:21","The main experiment item","yes","m","W:\Sussex\Consciousness and control\Exp 1 - stroop suggestion and PCE\Methods\Palfi_script","no","mono","no","18","no","black","no","Ok","NA","no","Female","768","legacy","C:/Users/User/Dropbox/Sussex/Consciousness and control/Exp 1 - stroop suggestion and PCE/Methods/Palfi_script/laptop_size/subject-13_CI.csv","legacy","Interactive Ising","3.0.2","0","m","m","space","NA","718","718","18272","NA","2","legacy","1024","2","48000","-16","experiment","13","odd","NA","NA","203112","332232","178395","388408","387836","388373","389128","390120","NA","NA","332232","162294","389366","387871","NA","2740","NA","NA","383284","4782","390570","NA","350505","387834","388408","Stroop CI","14","171175","16","yes","1366","RED"
"8","88.2352941176","yes","88.2352941176","24","10141","10141","#ffffff","no","practice","v;b;n;m","legacy","I have read and understood the information shown above","legacy","legacy","green","0","inc","uniform","1","1","1","NA","0","0","0","0","0","13","13","13","13","13","0","0","5","0","13","13","0","0","NA","0","13","0","13","NA","0","13","13","12/08/16 15:11:21","The main experiment item","yes","n","W:\Sussex\Consciousness and control\Exp 1 - stroop suggestion and PCE\Methods\Palfi_script","no","mono","no","18","no","black","no","Ok","NA","no","Female","768","legacy","C:/Users/User/Dropbox/Sussex/Consciousness and control/Exp 1 - stroop suggestion and PCE/Methods/Palfi_script/laptop_size/subject-13_CI.csv","legacy","Interactive Ising","3.0.2","0","n","n","space","NA","1222","1222","18272","NA","2","legacy","1024","2","48000","-16","experiment","13","odd","NA","NA","203112","332232","178395","391306","390734","391271","392531","393520","NA","NA","332232","162294","392768","390769","NA","2740","NA","NA","383284","4782","393970","NA","350505","390732","391306","Stroop CI","15","172397","17","yes","1366","BLUE"
"34","88.8888888889","yes","88.8888888889","24","9614","9614","#ffffff","no","practice","v;b;n;m","legacy","I have read and understood the information shown above","legacy","legacy","#ffef36","0","neutral","uniform","1","1","1","NA","0","0","0","0","0","14","14","14","14","14","0","0","5","0","14","14","0","0","NA","0","14","0","14","NA","0","14","14","12/08/16 15:11:21","The main experiment item","yes","m","W:\Sussex\Consciousness and control\Exp 1 - stroop suggestion and PCE\Methods\Palfi_script","no","mono","no","18","no","black","no","Ok","NA","no","Female","768","legacy","C:/Users/User/Dropbox/Sussex/Consciousness and control/Exp 1 - stroop suggestion and PCE/Methods/Palfi_script/laptop_size/subject-13_CI.csv","legacy","Interactive Ising","3.0.2","0","m","m","space","NA","664","664","18272","NA","2","legacy","1024","2","48000","-16","experiment","13","odd","NA","NA","203112","332232","178395","394689","394116","394654","395356","396344","NA","NA","332232","162294","395592","394152","NA","2740","NA","NA","383284","4782","396794","NA","350505","394114","394689","Stroop CI","16","173061","18","yes","1366","LOT"
"15","89.4736842105","yes","89.4736842105","24","9139","9139","#ffffff","no","practice","v;b;n;m","legacy","I have read and understood the information shown above","legacy","legacy","red","0","con","uniform","1","1","1","NA","0","0","0","0","0","15","15","15","15","15","0","0","5","0","15","15","0","0","NA","0","15","0","15","NA","0","15","15","12/08/16 15:11:21","The main experiment item","yes","v","W:\Sussex\Consciousness and control\Exp 1 - stroop suggestion and PCE\Methods\Palfi_script","no","mono","no","18","no","black","no","Ok","NA","no","Female","768","legacy","C:/Users/User/Dropbox/Sussex/Consciousness and control/Exp 1 - stroop suggestion and PCE/Methods/Palfi_script/laptop_size/subject-13_CI.csv","legacy","Interactive Ising","3.0.2","0","v","v","space","NA","594","594","18272","NA","2","legacy","1024","2","48000","-16","experiment","13","odd","NA","NA","203112","332232","178395","397512","396939","397477","398109","399098","NA","NA","332232","162294","398346","396975","NA","2740","NA","NA","383284","4782","399548","NA","350505","396937","397512","Stroop CI","17","173655","19","yes","1366","RED"
"1","90","yes","90","24","8719","8719","#ffffff","no","practice","v;b;n;m","legacy","I have read and understood the information shown above","legacy","legacy","red","0","inc","uniform","1","1","1","NA","0","0","0","0","0","16","16","16","16","16","0","0","5","0","16","16","0","0","NA","0","16","0","16","NA","0","16","16","12/08/16 15:11:21","The main experiment item","yes","v","W:\Sussex\Consciousness and control\Exp 1 - stroop suggestion and PCE\Methods\Palfi_script","no","mono","no","18","no","black","no","Ok","NA","no","Female","768","legacy","C:/Users/User/Dropbox/Sussex/Consciousness and control/Exp 1 - stroop suggestion and PCE/Methods/Palfi_script/laptop_size/subject-13_CI.csv","legacy","Interactive Ising","3.0.2","0","v","v","space","NA","738","738","18272","NA","2","legacy","1024","2","48000","-16","experiment","13","odd","NA","NA","203112","332232","178395","400268","399696","400233","401009","402000","NA","NA","332232","162294","401246","399731","NA","2740","NA","NA","383284","4782","402450","NA","350505","399694","400268","Stroop CI","18","174393","20","yes","1366","BLUE"
"22","90.4761904762","yes","90.4761904762","24","8335","8335","#ffffff","no","practice","v;b;n;m","legacy","I have read and understood the information shown above","legacy","legacy","#ffef36","0","con","uniform","1","1","1","NA","0","0","0","0","0","17","17","17","17","17","0","0","5","0","17","17","0","0","NA","0","17","0","17","NA","0","17","17","12/08/16 15:11:21","The main experiment item","yes","m","W:\Sussex\Consciousness and control\Exp 1 - stroop suggestion and PCE\Methods\Palfi_script","no","mono","no","18","no","black","no","Ok","NA","no","Female","768","legacy","C:/Users/User/Dropbox/Sussex/Consciousness and control/Exp 1 - stroop suggestion and PCE/Methods/Palfi_script/laptop_size/subject-13_CI.csv","legacy","Interactive Ising","3.0.2","0","m","m","space","NA","645","645","18272","NA","2","legacy","1024","2","48000","-16","experiment","13","odd","NA","NA","203112","332232","178395","403214","402641","403179","403862","404852","NA","NA","332232","162294","404098","402677","NA","2740","NA","NA","383284","4782","405302","NA","350505","402639","403214","Stroop CI","19","175038","21","yes","1366","YELLOW"
"7","86.3636363636","yes","86.3636363636","24","7986","7986","#ffffff","no","practice","v;b;n;m","legacy","I have read and understood the information shown above","legacy","legacy","green","0","inc","uniform","0","0","1","NA","0","0","0","0","0","18","18","18","18","18","0","0","5","0","18","18","0","0","NA","0","18","0","18","NA","0","18","18","12/08/16 15:11:21","The main experiment item","yes","n","W:\Sussex\Consciousness and control\Exp 1 - stroop suggestion and PCE\Methods\Palfi_script","no","mono","no","18","no","black","no","Ok","NA","no","Female","768","legacy","C:/Users/User/Dropbox/Sussex/Consciousness and control/Exp 1 - stroop suggestion and PCE/Methods/Palfi_script/laptop_size/subject-13_CI.csv","legacy","Interactive Ising","3.0.2","0","v","v","space","NA","663","663","18272","NA","2","legacy","1024","2","48000","-16","experiment","13","odd","NA","NA","203112","332232","178395","406103","405530","406068","406769","407758","NA","NA","332232","162294","404098","405566","NA","2740","NA","NA","407006","4782","408208","NA","350505","405528","406103","Stroop CI","19","175701","22","yes","1366","RED"
"12","86.9565217391","yes","86.9565217391","24","7672","7672","#ffffff","no","practice","v;b;n;m","legacy","I have read and understood the information shown above","legacy","legacy","#ffef36","0","inc","uniform","1","1","1","NA","0","0","0","0","0","19","19","19","19","19","0","0","5","0","19","19","0","0","NA","0","19","0","19","NA","0","19","19","12/08/16 15:11:21","The main experiment item","yes","m","W:\Sussex\Consciousness and control\Exp 1 - stroop suggestion and PCE\Methods\Palfi_script","no","mono","no","18","no","black","no","Ok","NA","no","Female","768","legacy","C:/Users/User/Dropbox/Sussex/Consciousness and control/Exp 1 - stroop suggestion and PCE/Methods/Palfi_script/laptop_size/subject-13_CI.csv","legacy","Interactive Ising","3.0.2","0","m","m","space","NA","775","775","18272","NA","2","legacy","1024","2","48000","-16","experiment","13","odd","NA","NA","203112","332232","178395","408988","408414","408952","409766","410754","NA","NA","332232","162294","410002","408450","NA","2740","NA","NA","407006","4782","411204","NA","350505","408412","408988","Stroop CI","20","176476","23","yes","1366","GREEN"
"24","87.5","yes","87.5","24","7378","7378","#ffffff","no","practice","v;b;n;m","legacy","I have read and understood the information shown above","legacy","legacy","#ffef36","0","con","uniform","1","1","1","NA","0","0","0","0","0","20","20","20","20","20","0","0","5","0","20","20","0","0","NA","0","20","0","20","NA","0","20","20","12/08/16 15:11:21","The main experiment item","yes","m","W:\Sussex\Consciousness and control\Exp 1 - stroop suggestion and PCE\Methods\Palfi_script","no","mono","no","18","no","black","no","Ok","NA","no","Female","768","legacy","C:/Users/User/Dropbox/Sussex/Consciousness and control/Exp 1 - stroop suggestion and PCE/Methods/Palfi_script/laptop_size/subject-13_CI.csv","legacy","Interactive Ising","3.0.2","0","m","m","space","NA","603","603","18272","NA","2","legacy","1024","2","48000","-16","experiment","13","odd","NA","NA","203112","332232","178395","411915","411343","411880","412521","413509","NA","NA","332232","162294","412757","411378","NA","2740","NA","NA","407006","4782","413959","NA","350505","411340","411915","Stroop CI","21","177079","24","yes","1366","YELLOW"
"33","88","yes","88","24","7123","7123","#ffffff","no","practice","v;b;n;m","legacy","I have read and understood the information shown above","legacy","legacy","green","0","neutral","uniform","1","1","1","NA","0","0","0","0","0","21","21","21","21","21","0","0","5","0","21","21","0","0","NA","0","21","0","21","NA","0","21","21","12/08/16 15:11:21","The main experiment item","yes","n","W:\Sussex\Consciousness and control\Exp 1 - stroop suggestion and PCE\Methods\Palfi_script","no","mono","no","18","no","black","no","Ok","NA","no","Female","768","legacy","C:/Users/User/Dropbox/Sussex/Consciousness and control/Exp 1 - stroop suggestion and PCE/Methods/Palfi_script/laptop_size/subject-13_CI.csv","legacy","Interactive Ising","3.0.2","0","n","n","space","NA","1013","1013","18272","NA","2","legacy","1024","2","48000","-16","experiment","13","odd","NA","NA","203112","332232","178395","414698","414126","414663","415714","416703","NA","NA","332232","162294","415950","414161","NA","2740","NA","NA","407006","4782","417153","NA","350505","414124","414698","Stroop CI","22","178092","25","yes","1366","FLOWER"
"30","84.6153846154","yes","84.6153846154","24","6880","6880","#ffffff","no","practice","v;b;n;m","legacy","I have read and understood the information shown above","legacy","legacy","blue","0","neutral","uniform","0","0","1","NA","0","0","0","0","0","22","22","22","22","22","0","0","5","0","22","22","0","0","NA","0","22","0","22","NA","0","22","22","12/08/16 15:11:21","The main experiment item","yes","b","W:\Sussex\Consciousness and control\Exp 1 - stroop suggestion and PCE\Methods\Palfi_script","no","mono","no","18","no","black","no","Ok","NA","no","Female","768","legacy","C:/Users/User/Dropbox/Sussex/Consciousness and control/Exp 1 - stroop suggestion and PCE/Methods/Palfi_script/laptop_size/subject-13_CI.csv","legacy","Interactive Ising","3.0.2","0","v","v","space","NA","801","801","18272","NA","2","legacy","1024","2","48000","-16","experiment","13","odd","NA","NA","203112","332232","178395","417968","417396","417933","418772","419762","NA","NA","332232","162294","415950","417431","NA","2740","NA","NA","419008","4782","420212","NA","350505","417394","417968","Stroop CI","22","178893","26","yes","1366","FLOWER"
"13","85.1851851852","yes","85.1851851852","24","6661","6661","#ffffff","no","practice","v;b;n;m","legacy","I have read and understood the information shown above","legacy","legacy","red","0","con","uniform","1","1","1","NA","0","0","0","0","0","23","23","23","23","23","0","0","5","0","23","23","0","0","NA","0","23","0","23","NA","0","23","23","12/08/16 15:11:21","The main experiment item","yes","v","W:\Sussex\Consciousness and control\Exp 1 - stroop suggestion and PCE\Methods\Palfi_script","no","mono","no","18","no","black","no","Ok","NA","no","Female","768","legacy","C:/Users/User/Dropbox/Sussex/Consciousness and control/Exp 1 - stroop suggestion and PCE/Methods/Palfi_script/laptop_size/subject-13_CI.csv","legacy","Interactive Ising","3.0.2","0","v","v","space","NA","971","971","18272","NA","2","legacy","1024","2","48000","-16","experiment","13","odd","NA","NA","203112","332232","178395","420929","420357","420894","421903","422891","NA","NA","332232","162294","422139","420392","NA","2740","NA","NA","419008","4782","423341","NA","350505","420355","420929","Stroop CI","23","179864","27","yes","1366","RED"
"17","85.7142857143","yes","85.7142857143","24","6457","6457","#ffffff","no","practice","v;b;n;m","legacy","I have read and understood the information shown above","legacy","legacy","blue","0","con","uniform","1","1","1","NA","0","0","0","0","0","24","24","24","24","24","0","0","5","0","24","24","0","0","NA","0","24","0","24","NA","0","24","24","12/08/16 15:11:21","The main experiment item","yes","b","W:\Sussex\Consciousness and control\Exp 1 - stroop suggestion and PCE\Methods\Palfi_script","no","mono","no","18","no","black","no","Ok","NA","no","Female","768","legacy","C:/Users/User/Dropbox/Sussex/Consciousness and control/Exp 1 - stroop suggestion and PCE/Methods/Palfi_script/laptop_size/subject-13_CI.csv","legacy","Interactive Ising","3.0.2","0","b","b","space","NA","940","940","18272","NA","2","legacy","1024","2","48000","-16","experiment","13","odd","NA","NA","203112","332232","178395","424077","423505","424042","425020","426008","NA","NA","332232","162294","425256","423540","NA","2740","NA","NA","419008","4782","426458","NA","350505","423503","424077","Stroop CI","24","180804","28","yes","1366","BLUE"
"32","86.2068965517","yes","86.2068965517","24","6270","6270","#ffffff","no","practice","v;b;n;m","legacy","I have read and understood the information shown above","legacy","legacy","green","0","neutral","uniform","1","1","1","NA","0","0","0","0","0","25","25","25","25","25","0","0","5","0","25","25","0","0","NA","0","25","0","25","NA","0","25","25","12/08/16 15:11:21","The main experiment item","yes","n","W:\Sussex\Consciousness and control\Exp 1 - stroop suggestion and PCE\Methods\Palfi_script","no","mono","no","18","no","black","no","Ok","NA","no","Female","768","legacy","C:/Users/User/Dropbox/Sussex/Consciousness and control/Exp 1 - stroop suggestion and PCE/Methods/Palfi_script/laptop_size/subject-13_CI.csv","legacy","Interactive Ising","3.0.2","0","n","n","space","NA","1036","1036","18272","NA","2","legacy","1024","2","48000","-16","experiment","13","odd","NA","NA","203112","332232","178395","427172","426600","427137","428211","429199","NA","NA","332232","162294","428447","426635","NA","2740","NA","NA","419008","4782","429649","NA","350505","426598","427172","Stroop CI","25","181840","29","yes","1366","SHIP"
"36","86.6666666667","yes","86.6666666667","24","6079","6079","#ffffff","no","practice","v;b;n;m","legacy","I have read and understood the information shown above","legacy","legacy","#ffef36","0","neutral","uniform","1","1","1","NA","0","0","0","0","0","26","26","26","26","26","0","0","5","0","26","26","0","0","NA","0","26","0","26","NA","0","26","26","12/08/16 15:11:21","The main experiment item","yes","m","W:\Sussex\Consciousness and control\Exp 1 - stroop suggestion and PCE\Methods\Palfi_script","no","mono","no","18","no","black","no","Ok","NA","no","Female","768","legacy","C:/Users/User/Dropbox/Sussex/Consciousness and control/Exp 1 - stroop suggestion and PCE/Methods/Palfi_script/laptop_size/subject-13_CI.csv","legacy","Interactive Ising","3.0.2","0","m","m","space","NA","547","547","18272","NA","2","legacy","1024","2","48000","-16","experiment","13","odd","NA","NA","203112","332232","178395","430348","429776","430313","430898","431886","NA","NA","332232","162294","431134","429811","NA","2740","NA","NA","419008","4782","432336","NA","350505","429774","430348","Stroop CI","26","182387","30","yes","1366","KNIFE"
"23","87.0967741935","yes","87.0967741935","24","5904","5904","#ffffff","no","practice","v;b;n;m","legacy","I have read and understood the information shown above","legacy","legacy","#ffef36","0","con","uniform","1","1","1","NA","0","0","0","0","0","27","27","27","27","27","0","0","5","0","27","27","0","0","NA","0","27","0","27","NA","0","27","27","12/08/16 15:11:21","The main experiment item","yes","m","W:\Sussex\Consciousness and control\Exp 1 - stroop suggestion and PCE\Methods\Palfi_script","no","mono","no","18","no","black","no","Ok","NA","no","Female","768","legacy","C:/Users/User/Dropbox/Sussex/Consciousness and control/Exp 1 - stroop suggestion and PCE/Methods/Palfi_script/laptop_size/subject-13_CI.csv","legacy","Interactive Ising","3.0.2","0","m","m","space","NA","660","660","18272","NA","2","legacy","1024","2","48000","-16","experiment","13","odd","NA","NA","203112","332232","178395","433059","432487","433024","433722","434710","NA","NA","332232","162294","433958","432522","NA","2740","NA","NA","419008","4782","435160","NA","350505","432485","433059","Stroop CI","27","183047","31","yes","1366","YELLOW"
"28","84.375","yes","84.375","24","5747","5747","#ffffff","no","practice","v;b;n;m","legacy","I have read and understood the information shown above","legacy","legacy","blue","0","neutral","uniform","0","0","1","NA","0","0","0","0","0","28","28","28","28","28","0","0","5","0","28","28","0","0","NA","0","28","0","28","NA","0","28","28","12/08/16 15:11:21","The main experiment item","yes","b","W:\Sussex\Consciousness and control\Exp 1 - stroop suggestion and PCE\Methods\Palfi_script","no","mono","no","18","no","black","no","Ok","NA","no","Female","768","legacy","C:/Users/User/Dropbox/Sussex/Consciousness and control/Exp 1 - stroop suggestion and PCE/Methods/Palfi_script/laptop_size/subject-13_CI.csv","legacy","Interactive Ising","3.0.2","0","n","n","space","NA","880","880","18272","NA","2","legacy","1024","2","48000","-16","experiment","13","odd","NA","NA","203112","332232","178395","435873","435301","435838","436756","437744","NA","NA","332232","162294","433958","435336","NA","2740","NA","NA","436992","4782","438194","NA","350505","435299","435873","Stroop CI","27","183927","32","yes","1366","LOT"
"14","84.8484848485","yes","84.8484848485","24","5589","5589","#ffffff","no","practice","v;b;n;m","legacy","I have read and understood the information shown above","legacy","legacy","red","0","con","uniform","1","1","1","NA","0","0","0","0","0","29","29","29","29","29","0","0","5","0","29","29","0","0","NA","0","29","0","29","NA","0","29","29","12/08/16 15:11:21","The main experiment item","yes","v","W:\Sussex\Consciousness and control\Exp 1 - stroop suggestion and PCE\Methods\Palfi_script","no","mono","no","18","no","black","no","Ok","NA","no","Female","768","legacy","C:/Users/User/Dropbox/Sussex/Consciousness and control/Exp 1 - stroop suggestion and PCE/Methods/Palfi_script/laptop_size/subject-13_CI.csv","legacy","Interactive Ising","3.0.2","0","v","v","space","NA","539","539","18272","NA","2","legacy","1024","2","48000","-16","experiment","13","odd","NA","NA","203112","332232","178395","438947","438374","438912","439488","440477","NA","NA","332232","162294","439724","438410","NA","2740","NA","NA","436992","4782","440927","NA","350505","438372","438947","Stroop CI","28","184466","33","yes","1366","RED"
"26","85.2941176471","yes","85.2941176471","24","5440","5440","#ffffff","no","practice","v;b;n;m","legacy","I have read and understood the information shown above","legacy","legacy","red","0","neutral","uniform","1","1","1","NA","0","0","0","0","0","30","30","30","30","30","0","0","5","0","30","30","0","0","NA","0","30","0","30","NA","0","30","30","12/08/16 15:11:21","The main experiment item","yes","v","W:\Sussex\Consciousness and control\Exp 1 - stroop suggestion and PCE\Methods\Palfi_script","no","mono","no","18","no","black","no","Ok","NA","no","Female","768","legacy","C:/Users/User/Dropbox/Sussex/Consciousness and control/Exp 1 - stroop suggestion and PCE/Methods/Palfi_script/laptop_size/subject-13_CI.csv","legacy","Interactive Ising","3.0.2","0","v","v","space","NA","507","507","18272","NA","2","legacy","1024","2","48000","-16","experiment","13","odd","NA","NA","203112","332232","178395","441644","441072","441609","442154","443142","NA","NA","332232","162294","442390","441107","NA","2740","NA","NA","436992","4782","443592","NA","350505","441070","441644","Stroop CI","29","184973","34","yes","1366","KNIFE"
"29","82.8571428571","yes","82.8571428571","24","5302","5302","#ffffff","no","practice","v;b;n;m","legacy","I have read and understood the information shown above","legacy","legacy","blue","0","neutral","uniform","0","0","1","NA","0","0","0","0","0","31","31","31","31","31","0","0","5","0","31","31","0","0","NA","0","31","0","31","NA","0","31","31","12/08/16 15:11:21","The main experiment item","yes","b","W:\Sussex\Consciousness and control\Exp 1 - stroop suggestion and PCE\Methods\Palfi_script","no","mono","no","18","no","black","no","Ok","NA","no","Female","768","legacy","C:/Users/User/Dropbox/Sussex/Consciousness and control/Exp 1 - stroop suggestion and PCE/Methods/Palfi_script/laptop_size/subject-13_CI.csv","legacy","Interactive Ising","3.0.2","0","v","v","space","NA","609","609","18272","NA","2","legacy","1024","2","48000","-16","experiment","13","odd","NA","NA","203112","332232","178395","444327","443755","444292","444939","445927","NA","NA","332232","162294","442390","443790","NA","2740","NA","NA","445175","4782","446377","NA","350505","443752","444327","Stroop CI","29","185582","35","yes","1366","KNIFE"
"2","83.3333333333","yes","83.3333333333","24","5172","5172","#ffffff","no","practice","v;b;n;m","legacy","I have read and understood the information shown above","legacy","legacy","red","0","inc","uniform","1","1","1","NA","0","0","0","0","0","32","32","32","32","32","0","0","5","0","32","32","0","0","NA","0","32","0","32","NA","0","32","32","12/08/16 15:11:21","The main experiment item","yes","v","W:\Sussex\Consciousness and control\Exp 1 - stroop suggestion and PCE\Methods\Palfi_script","no","mono","no","18","no","black","no","Ok","NA","no","Female","768","legacy","C:/Users/User/Dropbox/Sussex/Consciousness and control/Exp 1 - stroop suggestion and PCE/Methods/Palfi_script/laptop_size/subject-13_CI.csv","legacy","Interactive Ising","3.0.2","0","v","v","space","NA","611","611","18272","NA","2","legacy","1024","2","48000","-16","experiment","13","odd","NA","NA","203112","332232","178395","447087","446515","447052","447702","448690","NA","NA","332232","162294","447938","446550","NA","2740","NA","NA","445175","4782","449140","NA","350505","446512","447087","Stroop CI","30","186193","36","yes","1366","GREEN"
"5","83.7837837838","yes","83.7837837838","24","5058","5058","#ffffff","no","practice","v;b;n;m","legacy","I have read and understood the information shown above","legacy","legacy","blue","0","inc","uniform","1","1","1","NA","0","0","0","0","0","33","33","33","33","33","0","0","5","0","33","33","0","0","NA","0","33","0","33","NA","0","33","33","12/08/16 15:11:21","The main experiment item","yes","b","W:\Sussex\Consciousness and control\Exp 1 - stroop suggestion and PCE\Methods\Palfi_script","no","mono","no","18","no","black","no","Ok","NA","no","Female","768","legacy","C:/Users/User/Dropbox/Sussex/Consciousness and control/Exp 1 - stroop suggestion and PCE/Methods/Palfi_script/laptop_size/subject-13_CI.csv","legacy","Interactive Ising","3.0.2","0","b","b","space","NA","989","989","18272","NA","2","legacy","1024","2","48000","-16","experiment","13","odd","NA","NA","203112","332232","178395","449850","449278","449815","450842","451835","NA","NA","332232","162294","451081","449313","NA","2740","NA","NA","445175","4782","452285","NA","350505","449276","449850","Stroop CI","31","187182","37","yes","1366","GREEN"
"3","84.2105263158","yes","84.2105263158","24","4940","4940","#ffffff","no","practice","v;b;n;m","legacy","I have read and understood the information shown above","legacy","legacy","red","0","inc","uniform","1","1","1","NA","0","0","0","0","0","34","34","34","34","34","0","0","5","0","34","34","0","0","NA","0","34","0","34","NA","0","34","34","12/08/16 15:11:21","The main experiment item","yes","v","W:\Sussex\Consciousness and control\Exp 1 - stroop suggestion and PCE\Methods\Palfi_script","no","mono","no","18","no","black","no","Ok","NA","no","Female","768","legacy","C:/Users/User/Dropbox/Sussex/Consciousness and control/Exp 1 - stroop suggestion and PCE/Methods/Palfi_script/laptop_size/subject-13_CI.csv","legacy","Interactive Ising","3.0.2","0","v","v","space","NA","564","564","18272","NA","2","legacy","1024","2","48000","-16","experiment","13","odd","NA","NA","203112","332232","178395","453072","452500","453037","453639","454627","NA","NA","332232","162294","453875","452535","NA","2740","NA","NA","445175","4782","455077","NA","350505","452497","453072","Stroop CI","32","187746","38","yes","1366","YELLOW"
"9","84.6153846154","yes","84.6153846154","24","4827","4827","#ffffff","no","practice","v;b;n;m","legacy","I have read and understood the information shown above","legacy","legacy","green","0","inc","uniform","1","1","1","NA","0","0","0","0","0","35","35","35","35","35","0","0","5","0","35","35","0","0","NA","0","35","0","35","NA","0","35","35","12/08/16 15:11:21","The main experiment item","yes","n","W:\Sussex\Consciousness and control\Exp 1 - stroop suggestion and PCE\Methods\Palfi_script","no","mono","no","18","no","black","no","Ok","NA","no","Female","768","legacy","C:/Users/User/Dropbox/Sussex/Consciousness and control/Exp 1 - stroop suggestion and PCE/Methods/Palfi_script/laptop_size/subject-13_CI.csv","legacy","Interactive Ising","3.0.2","0","n","n","space","NA","529","529","18272","NA","2","legacy","1024","2","48000","-16","experiment","13","odd","NA","NA","203112","332232","178395","455859","455286","455824","456391","457380","NA","NA","332232","162294","456627","455321","NA","2740","NA","NA","445175","4782","457830","NA","350505","455284","455859","Stroop CI","33","188275","39","yes","1366","YELLOW"
"11","82.9268292683","yes","82.9268292683","24","4919","4919","#ffffff","no","C","v;b;n;m","legacy","I have read and understood the information shown above","legacy","legacy","blue","0","inc","uniform","0","0","1","NA","0","0","0","0","0","36","36","36","36","36","0","0","5","0","36","36","0","0","NA","0","36","0","36","NA","0","36","36","12/08/16 15:11:21","The main experiment item","yes","b","W:\Sussex\Consciousness and control\Exp 1 - stroop suggestion and PCE\Methods\Palfi_script","no","mono","no","18","no","black","no","Ok","NA","no","Female","768","legacy","C:/Users/User/Dropbox/Sussex/Consciousness and control/Exp 1 - stroop suggestion and PCE/Methods/Palfi_script/laptop_size/subject-13_CI.csv","legacy","Interactive Ising","3.0.2","0","n","n","space","NA","1797","1797","11615","NA","2","legacy","1024","2","48000","-16","experiment","13","odd","469485","NA","203112","332232","178395","470169","469594","470133","471969","472959","457869","NA","457869","162294","456627","469629","NA","2740","NA","NA","472207","4782","473409","NA","350505","469592","470168","Stroop CI","34","201687","41","yes","1366","YELLOW"
"21","83.3333333333","yes","83.3333333333","24","4822","4822","#ffffff","no","C","v;b;n;m","legacy","I have read and understood the information shown above","legacy","legacy","green","0","neutral","uniform","1","1","1","NA","0","0","0","0","0","37","37","37","37","37","0","0","5","0","37","37","0","0","NA","0","37","0","37","NA","0","37","37","12/08/16 15:11:21","The main experiment item","yes","n","W:\Sussex\Consciousness and control\Exp 1 - stroop suggestion and PCE\Methods\Palfi_script","no","mono","no","18","no","black","no","Ok","NA","no","Female","768","legacy","C:/Users/User/Dropbox/Sussex/Consciousness and control/Exp 1 - stroop suggestion and PCE/Methods/Palfi_script/laptop_size/subject-13_CI.csv","legacy","Interactive Ising","3.0.2","0","n","n","space","NA","870","870","11615","NA","2","legacy","1024","2","48000","-16","experiment","13","odd","469485","NA","203112","332232","178395","474131","473559","474096","475004","475997","457869","NA","457869","162294","475241","473594","NA","2740","NA","NA","472207","4782","476447","NA","350505","473557","474131","Stroop CI","35","202557","42","yes","1366","FLOWER"
"34","83.7209302326","yes","83.7209302326","24","4724","4724","#ffffff","no","C","v;b;n;m","legacy","I have read and understood the information shown above","legacy","legacy","red","0","con","uniform","1","1","1","NA","0","0","0","0","0","38","38","38","38","38","0","0","5","0","38","38","0","0","NA","0","38","0","38","NA","0","38","38","12/08/16 15:11:21","The main experiment item","yes","v","W:\Sussex\Consciousness and control\Exp 1 - stroop suggestion and PCE\Methods\Palfi_script","no","mono","no","18","no","black","no","Ok","NA","no","Female","768","legacy","C:/Users/User/Dropbox/Sussex/Consciousness and control/Exp 1 - stroop suggestion and PCE/Methods/Palfi_script/laptop_size/subject-13_CI.csv","legacy","Interactive Ising","3.0.2","0","v","v","space","NA","596","596","11615","NA","2","legacy","1024","2","48000","-16","experiment","13","odd","469485","NA","203112","332232","178395","477162","476590","477127","477762","478753","457869","NA","457869","162294","477999","476625","NA","2740","NA","NA","472207","4782","479203","NA","350505","476587","477162","Stroop CI","36","203153","43","yes","1366","RED"
"90","84.0909090909","yes","84.0909090909","24","4636","4636","#ffffff","no","C","v;b;n;m","legacy","I have read and understood the information shown above","legacy","legacy","green","0","con","uniform","1","1","1","NA","0","0","0","0","0","39","39","39","39","39","0","0","5","0","39","39","0","0","NA","0","39","0","39","NA","0","39","39","12/08/16 15:11:21","The main experiment item","yes","n","W:\Sussex\Consciousness and control\Exp 1 - stroop suggestion and PCE\Methods\Palfi_script","no","mono","no","18","no","black","no","Ok","NA","no","Female","768","legacy","C:/Users/User/Dropbox/Sussex/Consciousness and control/Exp 1 - stroop suggestion and PCE/Methods/Palfi_script/laptop_size/subject-13_CI.csv","legacy","Interactive Ising","3.0.2","0","n","n","space","NA","874","874","11615","NA","2","legacy","1024","2","48000","-16","experiment","13","odd","469485","NA","203112","332232","178395","479931","479358","479896","480808","481798","457869","NA","457869","162294","481045","479393","NA","2740","NA","NA","472207","4782","482249","NA","350505","479356","479931","Stroop CI","37","204027","44","yes","1366","GREEN"
"64","84.4444444444","yes","84.4444444444","24","4548","4548","#ffffff","no","C","v;b;n;m","legacy","I have read and understood the information shown above","legacy","legacy","blue","0","con","uniform","1","1","1","NA","0","0","0","0","0","40","40","40","40","40","0","0","5","0","40","40","0","0","NA","0","40","0","40","NA","0","40","40","12/08/16 15:11:21","The main experiment item","yes","b","W:\Sussex\Consciousness and control\Exp 1 - stroop suggestion and PCE\Methods\Palfi_script","no","mono","no","18","no","black","no","Ok","NA","no","Female","768","legacy","C:/Users/User/Dropbox/Sussex/Consciousness and control/Exp 1 - stroop suggestion and PCE/Methods/Palfi_script/laptop_size/subject-13_CI.csv","legacy","Interactive Ising","3.0.2","0","b","b","space","NA","668","668","11615","NA","2","legacy","1024","2","48000","-16","experiment","13","odd","469485","NA","203112","332232","178395","483053","482481","483018","483724","484713","457869","NA","457869","162294","483961","482516","NA","2740","NA","NA","472207","4782","485164","NA","350505","482479","483053","Stroop CI","38","204695","45","yes","1366","BLUE"
"27","84.7826086957","yes","84.7826086957","24","4461","4461","#ffffff","no","C","v;b;n;m","legacy","I have read and understood the information shown above","legacy","legacy","red","0","con","uniform","1","1","1","NA","0","0","0","0","0","41","41","41","41","41","0","0","5","0","41","41","0","0","NA","0","41","0","41","NA","0","41","41","12/08/16 15:11:21","The main experiment item","yes","v","W:\Sussex\Consciousness and control\Exp 1 - stroop suggestion and PCE\Methods\Palfi_script","no","mono","no","18","no","black","no","Ok","NA","no","Female","768","legacy","C:/Users/User/Dropbox/Sussex/Consciousness and control/Exp 1 - stroop suggestion and PCE/Methods/Palfi_script/laptop_size/subject-13_CI.csv","legacy","Interactive Ising","3.0.2","0","v","v","space","NA","552","552","11615","NA","2","legacy","1024","2","48000","-16","experiment","13","odd","469485","NA","203112","332232","178395","485898","485325","485863","486454","487442","457869","NA","457869","162294","486690","485361","NA","2740","NA","NA","472207","4782","487892","NA","350505","485323","485898","Stroop CI","39","205247","46","yes","1366","RED"
"66","82.9787234043","yes","82.9787234043","24","4386","4386","#ffffff","no","C","v;b;n;m","legacy","I have read and understood the information shown above","legacy","legacy","blue","0","con","uniform","0","0","1","NA","0","0","0","0","0","42","42","42","42","42","0","0","5","0","42","42","0","0","NA","0","42","0","42","NA","0","42","42","12/08/16 15:11:21","The main experiment item","yes","b","W:\Sussex\Consciousness and control\Exp 1 - stroop suggestion and PCE\Methods\Palfi_script","no","mono","no","18","no","black","no","Ok","NA","no","Female","768","legacy","C:/Users/User/Dropbox/Sussex/Consciousness and control/Exp 1 - stroop suggestion and PCE/Methods/Palfi_script/laptop_size/subject-13_CI.csv","legacy","Interactive Ising","3.0.2","0","n","n","space","NA","918","918","11615","NA","2","legacy","1024","2","48000","-16","experiment","13","odd","469485","NA","203112","332232","178395","488608","488036","488573","489529","490519","457869","NA","457869","162294","486690","488071","NA","2740","NA","NA","489767","4782","490969","NA","350505","488034","488608","Stroop CI","39","206165","47","yes","1366","BLUE"
"1","83.3333333333","yes","83.3333333333","24","4311","4311","#ffffff","no","C","v;b;n;m","legacy","I have read and understood the information shown above","legacy","legacy","red","0","inc","uniform","1","1","1","NA","0","0","0","0","0","43","43","43","43","43","0","0","5","0","43","43","0","0","NA","0","43","0","43","NA","0","43","43","12/08/16 15:11:21","The main experiment item","yes","v","W:\Sussex\Consciousness and control\Exp 1 - stroop suggestion and PCE\Methods\Palfi_script","no","mono","no","18","no","black","no","Ok","NA","no","Female","768","legacy","C:/Users/User/Dropbox/Sussex/Consciousness and control/Exp 1 - stroop suggestion and PCE/Methods/Palfi_script/laptop_size/subject-13_CI.csv","legacy","Interactive Ising","3.0.2","0","v","v","space","NA","777","777","11615","NA","2","legacy","1024","2","48000","-16","experiment","13","odd","469485","NA","203112","332232","178395","491680","491107","491645","492460","493449","457869","NA","457869","162294","492697","491143","NA","2740","NA","NA","489767","4782","493899","NA","350505","491105","491680","Stroop CI","40","206942","48","yes","1366","BLUE"
"43","83.6734693878","yes","83.6734693878","24","4233","4233","#ffffff","no","C","v;b;n;m","legacy","I have read and understood the information shown above","legacy","legacy","red","0","con","uniform","1","1","1","NA","0","0","0","0","0","44","44","44","44","44","0","0","5","0","44","44","0","0","NA","0","44","0","44","NA","0","44","44","12/08/16 15:11:21","The main experiment item","yes","v","W:\Sussex\Consciousness and control\Exp 1 - stroop suggestion and PCE\Methods\Palfi_script","no","mono","no","18","no","black","no","Ok","NA","no","Female","768","legacy","C:/Users/User/Dropbox/Sussex/Consciousness and control/Exp 1 - stroop suggestion and PCE/Methods/Palfi_script/laptop_size/subject-13_CI.csv","legacy","Interactive Ising","3.0.2","0","v","v","space","NA","521","521","11615","NA","2","legacy","1024","2","48000","-16","experiment","13","odd","469485","NA","203112","332232","178395","494674","494101","494639","495198","496192","457869","NA","457869","162294","495436","494137","NA","2740","NA","NA","489767","4782","496642","NA","350505","494099","494674","Stroop CI","41","207463","49","yes","1366","RED"
"55","82","yes","82","24","4164","4164","#ffffff","no","C","v;b;n;m","legacy","I have read and understood the information shown above","legacy","legacy","blue","0","con","uniform","0","0","1","NA","0","0","0","0","0","45","45","45","45","45","0","0","5","0","45","45","0","0","NA","0","45","0","45","NA","0","45","45","12/08/16 15:11:21","The main experiment item","yes","b","W:\Sussex\Consciousness and control\Exp 1 - stroop suggestion and PCE\Methods\Palfi_script","no","mono","no","18","no","black","no","Ok","NA","no","Female","768","legacy","C:/Users/User/Dropbox/Sussex/Consciousness and control/Exp 1 - stroop suggestion and PCE/Methods/Palfi_script/laptop_size/subject-13_CI.csv","legacy","Interactive Ising","3.0.2","0","n","n","space","NA","747","747","11615","NA","2","legacy","1024","2","48000","-16","experiment","13","odd","469485","NA","203112","332232","178395","497383","496811","497348","498133","499121","457869","NA","457869","162294","495436","496846","NA","2740","NA","NA","498369","4782","499571","NA","350505","496809","497383","Stroop CI","41","208210","50","yes","1366","BLUE"
"4","82.3529411765","yes","82.3529411765","24","4097","4097","#ffffff","no","C","v;b;n;m","legacy","I have read and understood the information shown above","legacy","legacy","red","0","inc","uniform","1","1","1","NA","0","0","0","0","0","46","46","46","46","46","0","0","5","0","46","46","0","0","NA","0","46","0","46","NA","0","46","46","12/08/16 15:11:21","The main experiment item","yes","v","W:\Sussex\Consciousness and control\Exp 1 - stroop suggestion and PCE\Methods\Palfi_script","no","mono","no","18","no","black","no","Ok","NA","no","Female","768","legacy","C:/Users/User/Dropbox/Sussex/Consciousness and control/Exp 1 - stroop suggestion and PCE/Methods/Palfi_script/laptop_size/subject-13_CI.csv","legacy","Interactive Ising","3.0.2","0","v","v","space","NA","759","759","11615","NA","2","legacy","1024","2","48000","-16","experiment","13","odd","469485","NA","203112","332232","178395","500295","499723","500259","501056","502045","457869","NA","457869","162294","501293","499758","NA","2740","NA","NA","498369","4782","502495","NA","350505","499721","500295","Stroop CI","42","208969","51","yes","1366","GREEN"
"44","82.6923076923","yes","82.6923076923","24","4028","4028","#ffffff","no","C","v;b;n;m","legacy","I have read and understood the information shown above","legacy","legacy","red","0","con","uniform","1","1","1","NA","0","0","0","0","0","47","47","47","47","47","0","0","5","0","47","47","0","0","NA","0","47","0","47","NA","0","47","47","12/08/16 15:11:21","The main experiment item","yes","v","W:\Sussex\Consciousness and control\Exp 1 - stroop suggestion and PCE\Methods\Palfi_script","no","mono","no","18","no","black","no","Ok","NA","no","Female","768","legacy","C:/Users/User/Dropbox/Sussex/Consciousness and control/Exp 1 - stroop suggestion and PCE/Methods/Palfi_script/laptop_size/subject-13_CI.csv","legacy","Interactive Ising","3.0.2","0","v","v","space","NA","492","492","11615","NA","2","legacy","1024","2","48000","-16","experiment","13","odd","469485","NA","203112","332232","178395","503215","502643","503180","503710","504699","457869","NA","457869","162294","503946","502678","NA","2740","NA","NA","498369","4782","505149","NA","350505","502640","503215","Stroop CI","43","209461","52","yes","1366","RED"
"8","83.0188679245","yes","83.0188679245","24","3962","3962","#ffffff","no","C","v;b;n;m","legacy","I have read and understood the information shown above","legacy","legacy","blue","0","inc","uniform","1","1","1","NA","0","0","0","0","0","48","48","48","48","48","0","0","5","0","48","48","0","0","NA","0","48","0","48","NA","0","48","48","12/08/16 15:11:21","The main experiment item","yes","b","W:\Sussex\Consciousness and control\Exp 1 - stroop suggestion and PCE\Methods\Palfi_script","no","mono","no","18","no","black","no","Ok","NA","no","Female","768","legacy","C:/Users/User/Dropbox/Sussex/Consciousness and control/Exp 1 - stroop suggestion and PCE/Methods/Palfi_script/laptop_size/subject-13_CI.csv","legacy","Interactive Ising","3.0.2","0","b","b","space","NA","544","544","11615","NA","2","legacy","1024","2","48000","-16","experiment","13","odd","469485","NA","203112","332232","178395","505923","505351","505888","506470","507458","457869","NA","457869","162294","506706","505386","NA","2740","NA","NA","498369","4782","507909","NA","350505","505348","505923","Stroop CI","44","210005","53","yes","1366","RED"
"82","83.3333333333","yes","83.3333333333","24","3896","3896","#ffffff","no","C","v;b;n;m","legacy","I have read and understood the information shown above","legacy","legacy","green","0","con","uniform","1","1","1","NA","0","0","0","0","0","49","49","49","49","49","0","0","5","0","49","49","0","0","NA","0","49","0","49","NA","0","49","49","12/08/16 15:11:21","The main experiment item","yes","n","W:\Sussex\Consciousness and control\Exp 1 - stroop suggestion and PCE\Methods\Palfi_script","no","mono","no","18","no","black","no","Ok","NA","no","Female","768","legacy","C:/Users/User/Dropbox/Sussex/Consciousness and control/Exp 1 - stroop suggestion and PCE/Methods/Palfi_script/laptop_size/subject-13_CI.csv","legacy","Interactive Ising","3.0.2","0","n","n","space","NA","424","424","11615","NA","2","legacy","1024","2","48000","-16","experiment","13","odd","469485","NA","203112","332232","178395","508620","508048","508585","509047","510035","457869","NA","457869","162294","509283","508083","NA","2740","NA","NA","498369","4782","510485","NA","350505","508046","508620","Stroop CI","45","210429","54","yes","1366","GREEN"
"103","83.6363636364","yes","83.6363636364","24","3833","3833","#ffffff","no","C","v;b;n;m","legacy","I have read and understood the information shown above","legacy","legacy","#ffef36","0","con","uniform","1","1","1","NA","0","0","0","0","0","50","50","50","50","50","0","0","5","0","50","50","0","0","NA","0","50","0","50","NA","0","50","50","12/08/16 15:11:21","The main experiment item","yes","m","W:\Sussex\Consciousness and control\Exp 1 - stroop suggestion and PCE\Methods\Palfi_script","no","mono","no","18","no","black","no","Ok","NA","no","Female","768","legacy","C:/Users/User/Dropbox/Sussex/Consciousness and control/Exp 1 - stroop suggestion and PCE/Methods/Palfi_script/laptop_size/subject-13_CI.csv","legacy","Interactive Ising","3.0.2","0","m","m","space","NA","423","423","11615","NA","2","legacy","1024","2","48000","-16","experiment","13","odd","469485","NA","203112","332232","178395","511240","510667","511204","511665","512657","457869","NA","457869","162294","511902","510702","NA","2740","NA","NA","498369","4782","513107","NA","350505","510665","511240","Stroop CI","46","210852","55","yes","1366","YELLOW"
"88","83.9285714286","yes","83.9285714286","24","3777","3777","#ffffff","no","C","v;b;n;m","legacy","I have read and understood the information shown above","legacy","legacy","green","0","con","uniform","1","1","1","NA","0","0","0","0","0","51","51","51","51","51","0","0","5","0","51","51","0","0","NA","0","51","0","51","NA","0","51","51","12/08/16 15:11:21","The main experiment item","yes","n","W:\Sussex\Consciousness and control\Exp 1 - stroop suggestion and PCE\Methods\Palfi_script","no","mono","no","18","no","black","no","Ok","NA","no","Female","768","legacy","C:/Users/User/Dropbox/Sussex/Consciousness and control/Exp 1 - stroop suggestion and PCE/Methods/Palfi_script/laptop_size/subject-13_CI.csv","legacy","Interactive Ising","3.0.2","0","n","n","space","NA","687","687","11615","NA","2","legacy","1024","2","48000","-16","experiment","13","odd","469485","NA","203112","332232","178395","513837","513265","513802","514527","515515","457869","NA","457869","162294","514763","513300","NA","2740","NA","NA","498369","4782","515965","NA","350505","513263","513837","Stroop CI","47","211539","56","yes","1366","GREEN"
"73","84.2105263158","yes","84.2105263158","24","3721","3721","#ffffff","no","C","v;b;n;m","legacy","I have read and understood the information shown above","legacy","legacy","green","0","con","uniform","1","1","1","NA","0","0","0","0","0","52","52","52","52","52","0","0","5","0","52","52","0","0","NA","0","52","0","52","NA","0","52","52","12/08/16 15:11:21","The main experiment item","yes","n","W:\Sussex\Consciousness and control\Exp 1 - stroop suggestion and PCE\Methods\Palfi_script","no","mono","no","18","no","black","no","Ok","NA","no","Female","768","legacy","C:/Users/User/Dropbox/Sussex/Consciousness and control/Exp 1 - stroop suggestion and PCE/Methods/Palfi_script/laptop_size/subject-13_CI.csv","legacy","Interactive Ising","3.0.2","0","n","n","space","NA","561","561","11615","NA","2","legacy","1024","2","48000","-16","experiment","13","odd","469485","NA","203112","332232","178395","516676","516103","516641","517240","518229","457869","NA","457869","162294","517477","516139","NA","2740","NA","NA","498369","4782","518679","NA","350505","516101","516676","Stroop CI","48","212100","57","yes","1366","GREEN"
"98","84.4827586207","yes","84.4827586207","24","3667","3667","#ffffff","no","C","v;b;n;m","legacy","I have read and understood the information shown above","legacy","legacy","#ffef36","0","con","uniform","1","1","1","NA","0","0","0","0","0","53","53","53","53","53","0","0","5","0","53","53","0","0","NA","0","53","0","53","NA","0","53","53","12/08/16 15:11:21","The main experiment item","yes","m","W:\Sussex\Consciousness and control\Exp 1 - stroop suggestion and PCE\Methods\Palfi_script","no","mono","no","18","no","black","no","Ok","NA","no","Female","768","legacy","C:/Users/User/Dropbox/Sussex/Consciousness and control/Exp 1 - stroop suggestion and PCE/Methods/Palfi_script/laptop_size/subject-13_CI.csv","legacy","Interactive Ising","3.0.2","0","m","m","space","NA","640","640","11615","NA","2","legacy","1024","2","48000","-16","experiment","13","odd","469485","NA","203112","332232","178395","519391","518819","519356","520033","521024","457869","NA","457869","162294","520270","518854","NA","2740","NA","NA","498369","4782","521474","NA","350505","518816","519391","Stroop CI","49","212740","58","yes","1366","YELLOW"
"83","84.7457627119","yes","84.7457627119","24","3618","3618","#ffffff","no","C","v;b;n;m","legacy","I have read and understood the information shown above","legacy","legacy","green","0","con","uniform","1","1","1","NA","0","0","0","0","0","54","54","54","54","54","0","0","5","0","54","54","0","0","NA","0","54","0","54","NA","0","54","54","12/08/16 15:11:21","The main experiment item","yes","n","W:\Sussex\Consciousness and control\Exp 1 - stroop suggestion and PCE\Methods\Palfi_script","no","mono","no","18","no","black","no","Ok","NA","no","Female","768","legacy","C:/Users/User/Dropbox/Sussex/Consciousness and control/Exp 1 - stroop suggestion and PCE/Methods/Palfi_script/laptop_size/subject-13_CI.csv","legacy","Interactive Ising","3.0.2","0","n","n","space","NA","750","750","11615","NA","2","legacy","1024","2","48000","-16","experiment","13","odd","469485","NA","203112","332232","178395","522255","521683","522220","523008","523999","457869","NA","457869","162294","523244","521718","NA","2740","NA","NA","498369","4782","524449","NA","350505","521681","522255","Stroop CI","50","213490","59","yes","1366","GREEN"
"109","85","yes","85","24","3566","3566","#ffffff","no","C","v;b;n;m","legacy","I have read and understood the information shown above","legacy","legacy","#ffef36","0","con","uniform","1","1","1","NA","0","0","0","0","0","55","55","55","55","55","0","0","5","0","55","55","0","0","NA","0","55","0","55","NA","0","55","55","12/08/16 15:11:21","The main experiment item","yes","m","W:\Sussex\Consciousness and control\Exp 1 - stroop suggestion and PCE\Methods\Palfi_script","no","mono","no","18","no","black","no","Ok","NA","no","Female","768","legacy","C:/Users/User/Dropbox/Sussex/Consciousness and control/Exp 1 - stroop suggestion and PCE/Methods/Palfi_script/laptop_size/subject-13_CI.csv","legacy","Interactive Ising","3.0.2","0","m","m","space","NA","475","475","11615","NA","2","legacy","1024","2","48000","-16","experiment","13","odd","469485","NA","203112","332232","178395","525161","524589","525126","525639","526629","457869","NA","457869","162294","525876","524624","NA","2740","NA","NA","498369","4782","527079","NA","350505","524587","525161","Stroop CI","51","213965","60","yes","1366","YELLOW"
"71","85.2459016393","yes","85.2459016393","24","3519","3519","#ffffff","no","C","v;b;n;m","legacy","I have read and understood the information shown above","legacy","legacy","blue","0","con","uniform","1","1","1","NA","0","0","0","0","0","56","56","56","56","56","0","0","5","0","56","56","0","0","NA","0","56","0","56","NA","0","56","56","12/08/16 15:11:21","The main experiment item","yes","b","W:\Sussex\Consciousness and control\Exp 1 - stroop suggestion and PCE\Methods\Palfi_script","no","mono","no","18","no","black","no","Ok","NA","no","Female","768","legacy","C:/Users/User/Dropbox/Sussex/Consciousness and control/Exp 1 - stroop suggestion and PCE/Methods/Palfi_script/laptop_size/subject-13_CI.csv","legacy","Interactive Ising","3.0.2","0","b","b","space","NA","744","744","11615","NA","2","legacy","1024","2","48000","-16","experiment","13","odd","469485","NA","203112","332232","178395","527855","527282","527820","528602","529590","457869","NA","457869","162294","528838","527318","NA","2740","NA","NA","498369","4782","530040","NA","350505","527280","527855","Stroop CI","52","214709","61","yes","1366","BLUE"
"108","85.4838709677","yes","85.4838709677","24","3474","3474","#ffffff","no","C","v;b;n;m","legacy","I have read and understood the information shown above","legacy","legacy","#ffef36","0","con","uniform","1","1","1","NA","0","0","0","0","0","57","57","57","57","57","0","0","5","0","57","57","0","0","NA","0","57","0","57","NA","0","57","57","12/08/16 15:11:21","The main experiment item","yes","m","W:\Sussex\Consciousness and control\Exp 1 - stroop suggestion and PCE\Methods\Palfi_script","no","mono","no","18","no","black","no","Ok","NA","no","Female","768","legacy","C:/Users/User/Dropbox/Sussex/Consciousness and control/Exp 1 - stroop suggestion and PCE/Methods/Palfi_script/laptop_size/subject-13_CI.csv","legacy","Interactive Ising","3.0.2","0","m","m","space","NA","712","712","11615","NA","2","legacy","1024","2","48000","-16","experiment","13","odd","469485","NA","203112","332232","178395","530752","530180","530717","531467","532455","457869","NA","457869","162294","531703","530215","NA","2740","NA","NA","498369","4782","532905","NA","350505","530177","530752","Stroop CI","53","215421","62","yes","1366","YELLOW"
"78","85.7142857143","yes","85.7142857143","24","3429","3429","#ffffff","no","C","v;b;n;m","legacy","I have read and understood the information shown above","legacy","legacy","green","0","con","uniform","1","1","1","NA","0","0","0","0","0","58","58","58","58","58","0","0","5","0","58","58","0","0","NA","0","58","0","58","NA","0","58","58","12/08/16 15:11:21","The main experiment item","yes","n","W:\Sussex\Consciousness and control\Exp 1 - stroop suggestion and PCE\Methods\Palfi_script","no","mono","no","18","no","black","no","Ok","NA","no","Female","768","legacy","C:/Users/User/Dropbox/Sussex/Consciousness and control/Exp 1 - stroop suggestion and PCE/Methods/Palfi_script/laptop_size/subject-13_CI.csv","legacy","Interactive Ising","3.0.2","0","n","n","space","NA","612","612","11615","NA","2","legacy","1024","2","48000","-16","experiment","13","odd","469485","NA","203112","332232","178395","533625","533053","533590","534240","535228","457869","NA","457869","162294","534476","533088","NA","2740","NA","NA","498369","4782","535678","NA","350505","533050","533625","Stroop CI","54","216033","63","yes","1366","GREEN"
"93","85.9375","yes","85.9375","24","3383","3383","#ffffff","no","C","v;b;n;m","legacy","I have read and understood the information shown above","legacy","legacy","green","0","con","uniform","1","1","1","NA","0","0","0","0","0","59","59","59","59","59","0","0","5","0","59","59","0","0","NA","0","59","0","59","NA","0","59","59","12/08/16 15:11:21","The main experiment item","yes","n","W:\Sussex\Consciousness and control\Exp 1 - stroop suggestion and PCE\Methods\Palfi_script","no","mono","no","18","no","black","no","Ok","NA","no","Female","768","legacy","C:/Users/User/Dropbox/Sussex/Consciousness and control/Exp 1 - stroop suggestion and PCE/Methods/Palfi_script/laptop_size/subject-13_CI.csv","legacy","Interactive Ising","3.0.2","0","n","n","space","NA","513","513","11615","NA","2","legacy","1024","2","48000","-16","experiment","13","odd","469485","NA","203112","332232","178395","536419","535847","536384","536935","537923","457869","NA","457869","162294","537171","535882","NA","2740","NA","NA","498369","4782","538373","NA","350505","535845","536419","Stroop CI","55","216546","64","yes","1366","GREEN"
"2","84.6153846154","yes","84.6153846154","24","3345","3345","#ffffff","no","C","v;b;n;m","legacy","I have read and understood the information shown above","legacy","legacy","red","0","inc","uniform","0","0","1","NA","0","0","0","0","0","60","60","60","60","60","0","0","5","0","60","60","0","0","NA","0","60","0","60","NA","0","60","60","12/08/16 15:11:21","The main experiment item","yes","v","W:\Sussex\Consciousness and control\Exp 1 - stroop suggestion and PCE\Methods\Palfi_script","no","mono","no","18","no","black","no","Ok","NA","no","Female","768","legacy","C:/Users/User/Dropbox/Sussex/Consciousness and control/Exp 1 - stroop suggestion and PCE/Methods/Palfi_script/laptop_size/subject-13_CI.csv","legacy","Interactive Ising","3.0.2","0","b","b","space","NA","922","922","11615","NA","2","legacy","1024","2","48000","-16","experiment","13","odd","469485","NA","203112","332232","178395","539092","538520","539057","540016","541012","457869","NA","457869","162294","537171","538555","NA","2740","NA","NA","540255","4782","541462","NA","350505","538517","539092","Stroop CI","55","217468","65","yes","1366","BLUE"
"6","84.8484848485","yes","84.8484848485","24","3310","3310","#ffffff","no","C","v;b;n;m","legacy","I have read and understood the information shown above","legacy","legacy","red","0","inc","uniform","1","1","1","NA","0","0","0","0","0","61","61","61","61","61","0","0","5","0","61","61","0","0","NA","0","61","0","61","NA","0","61","61","12/08/16 15:11:21","The main experiment item","yes","v","W:\Sussex\Consciousness and control\Exp 1 - stroop suggestion and PCE\Methods\Palfi_script","no","mono","no","18","no","black","no","Ok","NA","no","Female","768","legacy","C:/Users/User/Dropbox/Sussex/Consciousness and control/Exp 1 - stroop suggestion and PCE/Methods/Palfi_script/laptop_size/subject-13_CI.csv","legacy","Interactive Ising","3.0.2","0","v","v","space","NA","1015","1015","11615","NA","2","legacy","1024","2","48000","-16","experiment","13","odd","469485","NA","203112","332232","178395","542199","541627","542164","543216","544205","457869","NA","457869","162294","543453","541662","NA","2740","NA","NA","540255","4782","544655","NA","350505","541625","542199","Stroop CI","56","218483","66","yes","1366","YELLOW"
"54","85.0746268657","yes","85.0746268657","24","3269","3269","#ffffff","no","C","v;b;n;m","legacy","I have read and understood the information shown above","legacy","legacy","blue","0","con","uniform","1","1","1","NA","0","0","0","0","0","62","62","62","62","62","0","0","5","0","62","62","0","0","NA","0","62","0","62","NA","0","62","62","12/08/16 15:11:21","The main experiment item","yes","b","W:\Sussex\Consciousness and control\Exp 1 - stroop suggestion and PCE\Methods\Palfi_script","no","mono","no","18","no","black","no","Ok","NA","no","Female","768","legacy","C:/Users/User/Dropbox/Sussex/Consciousness and control/Exp 1 - stroop suggestion and PCE/Methods/Palfi_script/laptop_size/subject-13_CI.csv","legacy","Interactive Ising","3.0.2","0","b","b","space","NA","597","597","11615","NA","2","legacy","1024","2","48000","-16","experiment","13","odd","469485","NA","203112","332232","178395","545421","544848","545385","546021","547011","457869","NA","457869","162294","546259","544883","NA","2740","NA","NA","540255","4782","547461","NA","350505","544846","545421","Stroop CI","57","219080","67","yes","1366","BLUE"
"28","85.2941176471","yes","85.2941176471","24","3231","3231","#ffffff","no","C","v;b;n;m","legacy","I have read and understood the information shown above","legacy","legacy","red","0","con","uniform","1","1","1","NA","0","0","0","0","0","63","63","63","63","63","0","0","5","0","63","63","0","0","NA","0","63","0","63","NA","0","63","63","12/08/16 15:11:21","The main experiment item","yes","v","W:\Sussex\Consciousness and control\Exp 1 - stroop suggestion and PCE\Methods\Palfi_script","no","mono","no","18","no","black","no","Ok","NA","no","Female","768","legacy","C:/Users/User/Dropbox/Sussex/Consciousness and control/Exp 1 - stroop suggestion and PCE/Methods/Palfi_script/laptop_size/subject-13_CI.csv","legacy","Interactive Ising","3.0.2","0","v","v","space","NA","641","641","11615","NA","2","legacy","1024","2","48000","-16","experiment","13","odd","469485","NA","203112","332232","178395","548167","547595","548132","548811","549800","457869","NA","457869","162294","549047","547630","NA","2740","NA","NA","540255","4782","550250","NA","350505","547593","548167","Stroop CI","58","219721","68","yes","1366","RED"
"29","85.5072463768","yes","85.5072463768","24","3192","3192","#ffffff","no","C","v;b;n;m","legacy","I have read and understood the information shown above","legacy","legacy","red","0","con","uniform","1","1","1","NA","0","0","0","0","0","64","64","64","64","64","0","0","5","0","64","64","0","0","NA","0","64","0","64","NA","0","64","64","12/08/16 15:11:21","The main experiment item","yes","v","W:\Sussex\Consciousness and control\Exp 1 - stroop suggestion and PCE\Methods\Palfi_script","no","mono","no","18","no","black","no","Ok","NA","no","Female","768","legacy","C:/Users/User/Dropbox/Sussex/Consciousness and control/Exp 1 - stroop suggestion and PCE/Methods/Palfi_script/laptop_size/subject-13_CI.csv","legacy","Interactive Ising","3.0.2","0","v","v","space","NA","589","589","11615","NA","2","legacy","1024","2","48000","-16","experiment","13","odd","469485","NA","203112","332232","178395","550966","550394","550931","551558","552548","457869","NA","457869","162294","551796","550429","NA","2740","NA","NA","540255","4782","552998","NA","350505","550392","550966","Stroop CI","59","220310","69","yes","1366","RED"
"14","85.7142857143","yes","85.7142857143","24","3156","3156","#ffffff","no","C","v;b;n;m","legacy","I have read and understood the information shown above","legacy","legacy","red","0","neutral","uniform","1","1","1","NA","0","0","0","0","0","65","65","65","65","65","0","0","5","0","65","65","0","0","NA","0","65","0","65","NA","0","65","65","12/08/16 15:11:21","The main experiment item","yes","v","W:\Sussex\Consciousness and control\Exp 1 - stroop suggestion and PCE\Methods\Palfi_script","no","mono","no","18","no","black","no","Ok","NA","no","Female","768","legacy","C:/Users/User/Dropbox/Sussex/Consciousness and control/Exp 1 - stroop suggestion and PCE/Methods/Palfi_script/laptop_size/subject-13_CI.csv","legacy","Interactive Ising","3.0.2","0","v","v","space","NA","631","631","11615","NA","2","legacy","1024","2","48000","-16","experiment","13","odd","469485","NA","203112","332232","178395","553707","553133","553671","554341","555331","457869","NA","457869","162294","554579","553168","NA","2740","NA","NA","540255","4782","555781","NA","350505","553130","553707","Stroop CI","60","220941","70","yes","1366","KNIFE"
"104","85.9154929577","yes","85.9154929577","24","3120","3120","#ffffff","no","C","v;b;n;m","legacy","I have read and understood the information shown above","legacy","legacy","#ffef36","0","con","uniform","1","1","1","NA","0","0","0","0","0","66","66","66","66","66","0","0","5","0","66","66","0","0","NA","0","66","0","66","NA","0","66","66","12/08/16 15:11:21","The main experiment item","yes","m","W:\Sussex\Consciousness and control\Exp 1 - stroop suggestion and PCE\Methods\Palfi_script","no","mono","no","18","no","black","no","Ok","NA","no","Female","768","legacy","C:/Users/User/Dropbox/Sussex/Consciousness and control/Exp 1 - stroop suggestion and PCE/Methods/Palfi_script/laptop_size/subject-13_CI.csv","legacy","Interactive Ising","3.0.2","0","m","m","space","NA","635","635","11615","NA","2","legacy","1024","2","48000","-16","experiment","13","odd","469485","NA","203112","332232","178395","556502","555930","556467","557140","558128","457869","NA","457869","162294","557376","555965","NA","2740","NA","NA","540255","4782","558578","NA","350505","555928","556502","Stroop CI","61","221576","71","yes","1366","YELLOW"
"62","86.1111111111","yes","86.1111111111","24","3087","3087","#ffffff","no","C","v;b;n;m","legacy","I have read and understood the information shown above","legacy","legacy","blue","0","con","uniform","1","1","1","NA","0","0","0","0","0","67","67","67","67","67","0","0","5","0","67","67","0","0","NA","0","67","0","67","NA","0","67","67","12/08/16 15:11:21","The main experiment item","yes","b","W:\Sussex\Consciousness and control\Exp 1 - stroop suggestion and PCE\Methods\Palfi_script","no","mono","no","18","no","black","no","Ok","NA","no","Female","768","legacy","C:/Users/User/Dropbox/Sussex/Consciousness and control/Exp 1 - stroop suggestion and PCE/Methods/Palfi_script/laptop_size/subject-13_CI.csv","legacy","Interactive Ising","3.0.2","0","b","b","space","NA","692","692","11615","NA","2","legacy","1024","2","48000","-16","experiment","13","odd","469485","NA","203112","332232","178395","559283","558711","559248","559978","560966","457869","NA","457869","162294","560214","558746","NA","2740","NA","NA","540255","4782","561416","NA","350505","558709","559283","Stroop CI","62","222268","72","yes","1366","BLUE"
"77","86.301369863","yes","86.301369863","24","3050","3050","#ffffff","no","C","v;b;n;m","legacy","I have read and understood the information shown above","legacy","legacy","green","0","con","uniform","1","1","1","NA","0","0","0","0","0","68","68","68","68","68","0","0","5","0","68","68","0","0","NA","0","68","0","68","NA","0","68","68","12/08/16 15:11:21","The main experiment item","yes","n","W:\Sussex\Consciousness and control\Exp 1 - stroop suggestion and PCE\Methods\Palfi_script","no","mono","no","18","no","black","no","Ok","NA","no","Female","768","legacy","C:/Users/User/Dropbox/Sussex/Consciousness and control/Exp 1 - stroop suggestion and PCE/Methods/Palfi_script/laptop_size/subject-13_CI.csv","legacy","Interactive Ising","3.0.2","0","n","n","space","NA","415","415","11615","NA","2","legacy","1024","2","48000","-16","experiment","13","odd","469485","NA","203112","332232","178395","562144","561572","562109","562562","563551","457869","NA","457869","162294","562798","561607","NA","2740","NA","NA","540255","4782","564001","NA","350505","561570","562144","Stroop CI","63","222683","73","yes","1366","GREEN"
"97","86.4864864865","yes","86.4864864865","24","3016","3016","#ffffff","no","C","v;b;n;m","legacy","I have read and understood the information shown above","legacy","legacy","#ffef36","0","con","uniform","1","1","1","NA","0","0","0","0","0","69","69","69","69","69","0","0","5","0","69","69","0","0","NA","0","69","0","69","NA","0","69","69","12/08/16 15:11:21","The main experiment item","yes","m","W:\Sussex\Consciousness and control\Exp 1 - stroop suggestion and PCE\Methods\Palfi_script","no","mono","no","18","no","black","no","Ok","NA","no","Female","768","legacy","C:/Users/User/Dropbox/Sussex/Consciousness and control/Exp 1 - stroop suggestion and PCE/Methods/Palfi_script/laptop_size/subject-13_CI.csv","legacy","Interactive Ising","3.0.2","0","m","m","space","NA","561","561","11615","NA","2","legacy","1024","2","48000","-16","experiment","13","odd","469485","NA","203112","332232","178395","564725","564153","564690","565289","566279","457869","NA","457869","162294","565525","564188","NA","2740","NA","NA","540255","4782","566729","NA","350505","564151","564725","Stroop CI","64","223244","74","yes","1366","YELLOW"
"61","86.6666666667","yes","86.6666666667","24","2985","2985","#ffffff","no","C","v;b;n;m","legacy","I have read and understood the information shown above","legacy","legacy","blue","0","con","uniform","1","1","1","NA","0","0","0","0","0","70","70","70","70","70","0","0","5","0","70","70","0","0","NA","0","70","0","70","NA","0","70","70","12/08/16 15:11:21","The main experiment item","yes","b","W:\Sussex\Consciousness and control\Exp 1 - stroop suggestion and PCE\Methods\Palfi_script","no","mono","no","18","no","black","no","Ok","NA","no","Female","768","legacy","C:/Users/User/Dropbox/Sussex/Consciousness and control/Exp 1 - stroop suggestion and PCE/Methods/Palfi_script/laptop_size/subject-13_CI.csv","legacy","Interactive Ising","3.0.2","0","b","b","space","NA","634","634","11615","NA","2","legacy","1024","2","48000","-16","experiment","13","odd","469485","NA","203112","332232","178395","567478","566906","567443","568115","569104","457869","NA","457869","162294","568351","566941","NA","2740","NA","NA","540255","4782","569555","NA","350505","566904","567478","Stroop CI","65","223878","75","yes","1366","BLUE"
"46","86.8421052632","yes","86.8421052632","24","2954","2954","#ffffff","no","C","v;b;n;m","legacy","I have read and understood the information shown above","legacy","legacy","red","0","con","uniform","1","1","1","NA","0","0","0","0","0","71","71","71","71","71","0","0","5","0","71","71","0","0","NA","0","71","0","71","NA","0","71","71","12/08/16 15:11:21","The main experiment item","yes","v","W:\Sussex\Consciousness and control\Exp 1 - stroop suggestion and PCE\Methods\Palfi_script","no","mono","no","18","no","black","no","Ok","NA","no","Female","768","legacy","C:/Users/User/Dropbox/Sussex/Consciousness and control/Exp 1 - stroop suggestion and PCE/Methods/Palfi_script/laptop_size/subject-13_CI.csv","legacy","Interactive Ising","3.0.2","0","v","v","space","NA","629","629","11615","NA","2","legacy","1024","2","48000","-16","experiment","13","odd","469485","NA","203112","332232","178395","570298","569725","570262","570930","571918","457869","NA","457869","162294","571166","569760","NA","2740","NA","NA","540255","4782","572368","NA","350505","569723","570298","Stroop CI","66","224507","76","yes","1366","RED"
"7","87.012987013","yes","87.012987013","24","2926","2926","#ffffff","no","C","v;b;n;m","legacy","I have read and understood the information shown above","legacy","legacy","blue","0","inc","uniform","1","1","1","NA","0","0","0","0","0","72","72","72","72","72","0","0","5","0","72","72","0","0","NA","0","72","0","72","NA","0","72","72","12/08/16 15:11:21","The main experiment item","yes","b","W:\Sussex\Consciousness and control\Exp 1 - stroop suggestion and PCE\Methods\Palfi_script","no","mono","no","18","no","black","no","Ok","NA","no","Female","768","legacy","C:/Users/User/Dropbox/Sussex/Consciousness and control/Exp 1 - stroop suggestion and PCE/Methods/Palfi_script/laptop_size/subject-13_CI.csv","legacy","Interactive Ising","3.0.2","0","b","b","space","NA","844","844","11615","NA","2","legacy","1024","2","48000","-16","experiment","13","odd","469485","NA","203112","332232","178395","573222","572650","573187","574069","575057","457869","NA","457869","162294","574305","572685","NA","2740","NA","NA","540255","4782","575507","NA","350505","572648","573222","Stroop CI","67","225351","77","yes","1366","RED"
"39","87.1794871795","yes","87.1794871795","24","2898","2898","#ffffff","no","C","v;b;n;m","legacy","I have read and understood the information shown above","legacy","legacy","red","0","con","uniform","1","1","1","NA","0","0","0","0","0","73","73","73","73","73","0","0","5","0","73","73","0","0","NA","0","73","0","73","NA","0","73","73","12/08/16 15:11:21","The main experiment item","yes","v","W:\Sussex\Consciousness and control\Exp 1 - stroop suggestion and PCE\Methods\Palfi_script","no","mono","no","18","no","black","no","Ok","NA","no","Female","768","legacy","C:/Users/User/Dropbox/Sussex/Consciousness and control/Exp 1 - stroop suggestion and PCE/Methods/Palfi_script/laptop_size/subject-13_CI.csv","legacy","Interactive Ising","3.0.2","0","v","v","space","NA","695","695","11615","NA","2","legacy","1024","2","48000","-16","experiment","13","odd","469485","NA","203112","332232","178395","576221","575649","576186","576919","577907","457869","NA","457869","162294","577155","575684","NA","2740","NA","NA","540255","4782","578357","NA","350505","575647","576221","Stroop CI","68","226046","78","yes","1366","RED"
"53","87.3417721519","yes","87.3417721519","24","2869","2869","#ffffff","no","C","v;b;n;m","legacy","I have read and understood the information shown above","legacy","legacy","blue","0","con","uniform","1","1","1","NA","0","0","0","0","0","74","74","74","74","74","0","0","5","0","74","74","0","0","NA","0","74","0","74","NA","0","74","74","12/08/16 15:11:21","The main experiment item","yes","b","W:\Sussex\Consciousness and control\Exp 1 - stroop suggestion and PCE\Methods\Palfi_script","no","mono","no","18","no","black","no","Ok","NA","no","Female","768","legacy","C:/Users/User/Dropbox/Sussex/Consciousness and control/Exp 1 - stroop suggestion and PCE/Methods/Palfi_script/laptop_size/subject-13_CI.csv","legacy","Interactive Ising","3.0.2","0","b","b","space","NA","607","607","11615","NA","2","legacy","1024","2","48000","-16","experiment","13","odd","469485","NA","203112","332232","178395","579083","578508","579047","579692","580683","457869","NA","457869","162294","579929","578543","NA","2740","NA","NA","540255","4782","581133","NA","350505","578505","579082","Stroop CI","69","226653","79","yes","1366","BLUE"
"70","87.5","yes","87.5","24","2841","2841","#ffffff","no","C","v;b;n;m","legacy","I have read and understood the information shown above","legacy","legacy","blue","0","con","uniform","1","1","1","NA","0","0","0","0","0","75","75","75","75","75","0","0","5","0","75","75","0","0","NA","0","75","0","75","NA","0","75","75","12/08/16 15:11:21","The main experiment item","yes","b","W:\Sussex\Consciousness and control\Exp 1 - stroop suggestion and PCE\Methods\Palfi_script","no","mono","no","18","no","black","no","Ok","NA","no","Female","768","legacy","C:/Users/User/Dropbox/Sussex/Consciousness and control/Exp 1 - stroop suggestion and PCE/Methods/Palfi_script/laptop_size/subject-13_CI.csv","legacy","Interactive Ising","3.0.2","0","b","b","space","NA","659","659","11615","NA","2","legacy","1024","2","48000","-16","experiment","13","odd","469485","NA","203112","332232","178395","581885","581313","581850","582547","583537","457869","NA","457869","162294","582785","581348","NA","2740","NA","NA","540255","4782","583988","NA","350505","581310","581885","Stroop CI","70","227312","80","yes","1366","BLUE"
"110","87.6543209877","yes","87.6543209877","24","2812","2812","#ffffff","no","C","v;b;n;m","legacy","I have read and understood the information shown above","legacy","legacy","#ffef36","0","con","uniform","1","1","1","NA","0","0","0","0","0","76","76","76","76","76","0","0","5","0","76","76","0","0","NA","0","76","0","76","NA","0","76","76","12/08/16 15:11:21","The main experiment item","yes","m","W:\Sussex\Consciousness and control\Exp 1 - stroop suggestion and PCE\Methods\Palfi_script","no","mono","no","18","no","black","no","Ok","NA","no","Female","768","legacy","C:/Users/User/Dropbox/Sussex/Consciousness and control/Exp 1 - stroop suggestion and PCE/Methods/Palfi_script/laptop_size/subject-13_CI.csv","legacy","Interactive Ising","3.0.2","0","m","m","space","NA","524","524","11615","NA","2","legacy","1024","2","48000","-16","experiment","13","odd","469485","NA","203112","332232","178395","584747","584174","584712","585274","586264","457869","NA","457869","162294","585510","584210","NA","2740","NA","NA","540255","4782","586714","NA","350505","584172","584747","Stroop CI","71","227836","81","yes","1366","YELLOW"
"26","87.8048780488","yes","87.8048780488","24","2785","2785","#ffffff","no","C","v;b;n;m","legacy","I have read and understood the information shown above","legacy","legacy","red","0","con","uniform","1","1","1","NA","0","0","0","0","0","77","77","77","77","77","0","0","5","0","77","77","0","0","NA","0","77","0","77","NA","0","77","77","12/08/16 15:11:21","The main experiment item","yes","v","W:\Sussex\Consciousness and control\Exp 1 - stroop suggestion and PCE\Methods\Palfi_script","no","mono","no","18","no","black","no","Ok","NA","no","Female","768","legacy","C:/Users/User/Dropbox/Sussex/Consciousness and control/Exp 1 - stroop suggestion and PCE/Methods/Palfi_script/laptop_size/subject-13_CI.csv","legacy","Interactive Ising","3.0.2","0","v","v","space","NA","562","562","11615","NA","2","legacy","1024","2","48000","-16","experiment","13","odd","469485","NA","203112","332232","178395","587643","587071","587608","588208","589199","457869","NA","457869","162294","588445","587106","NA","2740","NA","NA","540255","4782","589649","NA","350505","587068","587643","Stroop CI","72","228398","82","yes","1366","RED"
"95","87.9518072289","yes","87.9518072289","24","2759","2759","#ffffff","no","C","v;b;n;m","legacy","I have read and understood the information shown above","legacy","legacy","green","0","con","uniform","1","1","1","NA","0","0","0","0","0","78","78","78","78","78","0","0","5","0","78","78","0","0","NA","0","78","0","78","NA","0","78","78","12/08/16 15:11:21","The main experiment item","yes","n","W:\Sussex\Consciousness and control\Exp 1 - stroop suggestion and PCE\Methods\Palfi_script","no","mono","no","18","no","black","no","Ok","NA","no","Female","768","legacy","C:/Users/User/Dropbox/Sussex/Consciousness and control/Exp 1 - stroop suggestion and PCE/Methods/Palfi_script/laptop_size/subject-13_CI.csv","legacy","Interactive Ising","3.0.2","0","n","n","space","NA","649","649","11615","NA","2","legacy","1024","2","48000","-16","experiment","13","odd","469485","NA","203112","332232","178395","590368","589795","590333","591019","592010","457869","NA","457869","162294","591256","589831","NA","2740","NA","NA","540255","4782","592460","NA","350505","589793","590368","Stroop CI","73","229047","83","yes","1366","GREEN"
"84","88.0952380952","yes","88.0952380952","24","2735","2735","#ffffff","no","C","v;b;n;m","legacy","I have read and understood the information shown above","legacy","legacy","green","0","con","uniform","1","1","1","NA","0","0","0","0","0","79","79","79","79","79","0","0","5","0","79","79","0","0","NA","0","79","0","79","NA","0","79","79","12/08/16 15:11:21","The main experiment item","yes","n","W:\Sussex\Consciousness and control\Exp 1 - stroop suggestion and PCE\Methods\Palfi_script","no","mono","no","18","no","black","no","Ok","NA","no","Female","768","legacy","C:/Users/User/Dropbox/Sussex/Consciousness and control/Exp 1 - stroop suggestion and PCE/Methods/Palfi_script/laptop_size/subject-13_CI.csv","legacy","Interactive Ising","3.0.2","0","n","n","space","NA","702","702","11615","NA","2","legacy","1024","2","48000","-16","experiment","13","odd","469485","NA","203112","332232","178395","593192","592620","593157","593896","594884","457869","NA","457869","162294","594132","592655","NA","2740","NA","NA","540255","4782","595334","NA","350505","592618","593192","Stroop CI","74","229749","84","yes","1366","GREEN"
"41","88.2352941176","yes","88.2352941176","24","2709","2709","#ffffff","no","C","v;b;n;m","legacy","I have read and understood the information shown above","legacy","legacy","red","0","con","uniform","1","1","1","NA","0","0","0","0","0","80","80","80","80","80","0","0","5","0","80","80","0","0","NA","0","80","0","80","NA","0","80","80","12/08/16 15:11:21","The main experiment item","yes","v","W:\Sussex\Consciousness and control\Exp 1 - stroop suggestion and PCE\Methods\Palfi_script","no","mono","no","18","no","black","no","Ok","NA","no","Female","768","legacy","C:/Users/User/Dropbox/Sussex/Consciousness and control/Exp 1 - stroop suggestion and PCE/Methods/Palfi_script/laptop_size/subject-13_CI.csv","legacy","Interactive Ising","3.0.2","0","v","v","space","NA","518","518","11615","NA","2","legacy","1024","2","48000","-16","experiment","13","odd","469485","NA","203112","332232","178395","596068","595496","596033","596589","597577","457869","NA","457869","162294","596825","595531","NA","2740","NA","NA","540255","4782","598027","NA","350505","595494","596068","Stroop CI","75","230267","85","yes","1366","RED"
"116","88.3720930233","yes","88.3720930233","24","2683","2683","#ffffff","no","C","v;b;n;m","legacy","I have read and understood the information shown above","legacy","legacy","#ffef36","0","con","uniform","1","1","1","NA","0","0","0","0","0","81","81","81","81","81","0","0","5","0","81","81","0","0","NA","0","81","0","81","NA","0","81","81","12/08/16 15:11:21","The main experiment item","yes","m","W:\Sussex\Consciousness and control\Exp 1 - stroop suggestion and PCE\Methods\Palfi_script","no","mono","no","18","no","black","no","Ok","NA","no","Female","768","legacy","C:/Users/User/Dropbox/Sussex/Consciousness and control/Exp 1 - stroop suggestion and PCE/Methods/Palfi_script/laptop_size/subject-13_CI.csv","legacy","Interactive Ising","3.0.2","0","m","m","space","NA","546","546","11615","NA","2","legacy","1024","2","48000","-16","experiment","13","odd","469485","NA","203112","332232","178395","598752","598180","598717","599301","600290","457869","NA","457869","162294","599537","598215","NA","2740","NA","NA","540255","4782","600740","NA","350505","598177","598752","Stroop CI","76","230813","86","yes","1366","YELLOW"
"111","88.5057471264","yes","88.5057471264","24","2660","2660","#ffffff","no","C","v;b;n;m","legacy","I have read and understood the information shown above","legacy","legacy","#ffef36","0","con","uniform","1","1","1","NA","0","0","0","0","0","82","82","82","82","82","0","0","5","0","82","82","0","0","NA","0","82","0","82","NA","0","82","82","12/08/16 15:11:21","The main experiment item","yes","m","W:\Sussex\Consciousness and control\Exp 1 - stroop suggestion and PCE\Methods\Palfi_script","no","mono","no","18","no","black","no","Ok","NA","no","Female","768","legacy","C:/Users/User/Dropbox/Sussex/Consciousness and control/Exp 1 - stroop suggestion and PCE/Methods/Palfi_script/laptop_size/subject-13_CI.csv","legacy","Interactive Ising","3.0.2","0","m","m","space","NA","653","653","11615","NA","2","legacy","1024","2","48000","-16","experiment","13","odd","469485","NA","203112","332232","178395","601455","600883","601420","602111","603100","457869","NA","457869","162294","602347","600918","NA","2740","NA","NA","540255","4782","603550","NA","350505","600881","601455","Stroop CI","77","231466","87","yes","1366","YELLOW"
"19","88.6363636364","yes","88.6363636364","24","2637","2637","#ffffff","no","C","v;b;n;m","legacy","I have read and understood the information shown above","legacy","legacy","green","0","neutral","uniform","1","1","1","NA","0","0","0","0","0","83","83","83","83","83","0","0","5","0","83","83","0","0","NA","0","83","0","83","NA","0","83","83","12/08/16 15:11:21","The main experiment item","yes","n","W:\Sussex\Consciousness and control\Exp 1 - stroop suggestion and PCE\Methods\Palfi_script","no","mono","no","18","no","black","no","Ok","NA","no","Female","768","legacy","C:/Users/User/Dropbox/Sussex/Consciousness and control/Exp 1 - stroop suggestion and PCE/Methods/Palfi_script/laptop_size/subject-13_CI.csv","legacy","Interactive Ising","3.0.2","0","n","n","space","NA","631","631","11615","NA","2","legacy","1024","2","48000","-16","experiment","13","odd","469485","NA","203112","332232","178395","604583","604009","604548","605217","606205","457869","NA","457869","162294","605453","604044","NA","2740","NA","NA","540255","4782","606656","NA","350505","604007","604583","Stroop CI","78","232097","88","yes","1366","LOT"
"10","87.6404494382","yes","87.6404494382","24","2616","2616","#ffffff","no","C","v;b;n;m","legacy","I have read and understood the information shown above","legacy","legacy","blue","0","inc","uniform","0","0","1","NA","0","0","0","0","0","84","84","84","84","84","0","0","5","0","84","84","0","0","NA","0","84","0","84","NA","0","84","84","12/08/16 15:11:21","The main experiment item","yes","b","W:\Sussex\Consciousness and control\Exp 1 - stroop suggestion and PCE\Methods\Palfi_script","no","mono","no","18","no","black","no","Ok","NA","no","Female","768","legacy","C:/Users/User/Dropbox/Sussex/Consciousness and control/Exp 1 - stroop suggestion and PCE/Methods/Palfi_script/laptop_size/subject-13_CI.csv","legacy","Interactive Ising","3.0.2","0","n","n","space","NA","727","727","11615","NA","2","legacy","1024","2","48000","-16","experiment","13","odd","469485","NA","203112","332232","178395","607434","606862","607399","608164","609153","457869","NA","457869","162294","605453","606897","NA","2740","NA","NA","608401","4782","609603","NA","350505","606859","607434","Stroop CI","78","232824","89","yes","1366","GREEN"
"15","87.7777777778","yes","87.7777777778","24","2593","2593","#ffffff","no","C","v;b;n;m","legacy","I have read and understood the information shown above","legacy","legacy","red","0","neutral","uniform","1","1","1","NA","0","0","0","0","0","85","85","85","85","85","0","0","5","0","85","85","0","0","NA","0","85","0","85","NA","0","85","85","12/08/16 15:11:21","The main experiment item","yes","v","W:\Sussex\Consciousness and control\Exp 1 - stroop suggestion and PCE\Methods\Palfi_script","no","mono","no","18","no","black","no","Ok","NA","no","Female","768","legacy","C:/Users/User/Dropbox/Sussex/Consciousness and control/Exp 1 - stroop suggestion and PCE/Methods/Palfi_script/laptop_size/subject-13_CI.csv","legacy","Interactive Ising","3.0.2","0","v","v","space","NA","572","572","11615","NA","2","legacy","1024","2","48000","-16","experiment","13","odd","469485","NA","203112","332232","178395","610315","609743","610280","610890","611880","457869","NA","457869","162294","611126","609778","NA","2740","NA","NA","608401","4782","612330","NA","350505","609741","610315","Stroop CI","79","233396","90","yes","1366","FLOWER"
"24","87.9120879121","yes","87.9120879121","24","2573","2573","#ffffff","no","C","v;b;n;m","legacy","I have read and understood the information shown above","legacy","legacy","#ffef36","0","neutral","uniform","1","1","1","NA","0","0","0","0","0","86","86","86","86","86","0","0","5","0","86","86","0","0","NA","0","86","0","86","NA","0","86","86","12/08/16 15:11:21","The main experiment item","yes","m","W:\Sussex\Consciousness and control\Exp 1 - stroop suggestion and PCE\Methods\Palfi_script","no","mono","no","18","no","black","no","Ok","NA","no","Female","768","legacy","C:/Users/User/Dropbox/Sussex/Consciousness and control/Exp 1 - stroop suggestion and PCE/Methods/Palfi_script/laptop_size/subject-13_CI.csv","legacy","Interactive Ising","3.0.2","0","m","m","space","NA","828","828","11615","NA","2","legacy","1024","2","48000","-16","experiment","13","odd","469485","NA","203112","332232","178395","613124","612552","613089","613955","614945","457869","NA","457869","162294","614191","612587","NA","2740","NA","NA","608401","4782","615395","NA","350505","612550","613124","Stroop CI","80","234224","91","yes","1366","KNIFE"
